Subject	Code	Version	Timestamp	Block	Trial	Target	SetSize	StimSet	Noise	Precue	StairTrack	Reversal	Response	Accuracy	RT	ActualExpDur
cac2	Crossover_4	1.0-rc12	20101022.094537	practice	1	1	8	2v5	0.100000	1	0	0	absent	0	806	80.006
cac2	Crossover_4	1.0-rc12	20101022.094541	practice	2	0	2	2v5	0.100000	1	0	0	absent	1	697	80.004
cac2	Crossover_4	1.0-rc12	20101022.094545	practice	3	0	8	orientation	0.650000	1	0	0	absent	1	783	79.999
cac2	Crossover_4	1.0-rc12	20101022.094549	practice	4	1	2	2v5	0.100000	1	0	0	present	1	672	80.018
cac2	Crossover_4	1.0-rc12	20101022.094553	practice	5	0	4	2v5	0.100000	1	0	0	absent	1	597	80.002
cac2	Crossover_4	1.0-rc12	20101022.094557	practice	6	1	8	orientation	0.650000	1	0	0	present	1	629	80.002
cac2	Crossover_4	1.0-rc12	20101022.094600	practice	7	0	2	orientation	0.650000	1	0	0	absent	1	665	80.000
cac2	Crossover_4	1.0-rc12	20101022.094604	practice	8	1	2	2v5	0.100000	1	0	0	present	1	531	79.997
cac2	Crossover_4	1.0-rc12	20101022.094608	practice	9	0	1	orientation	0.650000	1	0	0	absent	1	634	79.999
cac2	Crossover_4	1.0-rc12	20101022.094612	practice	10	0	1	2v5	0.100000	1	0	0	absent	1	513	80.002
cac2	Crossover_4	1.0-rc12	20101022.094615	practice	11	1	1	orientation	0.650000	1	0	0	present	1	563	80.010
cac2	Crossover_4	1.0-rc12	20101022.094619	practice	12	0	4	orientation	0.650000	1	0	0	present	0	1011	80.002
cac2	Crossover_4	1.0-rc12	20101022.094623	practice	13	1	4	orientation	0.650000	1	0	0	present	1	1086	80.007
cac2	Crossover_4	1.0-rc12	20101022.094627	practice	14	1	1	2v5	0.100000	1	0	0	present	1	708	80.005
cac2	Crossover_4	1.0-rc12	20101022.094631	practice	15	0	4	2v5	0.100000	1	0	0	absent	1	687	80.000
cac2	Crossover_4	1.0-rc12	20101022.094635	practice	16	0	1	2v5	0.100000	1	0	0	absent	1	520	80.008
cac2	Crossover_4	1.0-rc12	20101022.094639	practice	17	1	4	orientation	0.650000	1	0	0	present	1	496	79.997
cac2	Crossover_4	1.0-rc12	20101022.094642	practice	18	0	4	orientation	0.650000	1	0	0	absent	1	882	80.006
cac2	Crossover_4	1.0-rc12	20101022.094646	practice	19	1	2	orientation	0.650000	1	0	0	present	1	562	80.006
cac2	Crossover_4	1.0-rc12	20101022.094650	practice	20	1	8	2v5	0.100000	1	0	0	present	1	529	80.005
cac2	Crossover_4	1.0-rc12	20101022.094654	practice	21	1	1	2v5	0.100000	1	0	0	present	1	586	80.007
cac2	Crossover_4	1.0-rc12	20101022.094658	practice	22	0	4	2v5	0.100000	1	0	0	absent	1	698	80.005
cac2	Crossover_4	1.0-rc12	20101022.094701	practice	23	0	8	2v5	0.100000	1	0	0	absent	1	642	80.004
cac2	Crossover_4	1.0-rc12	20101022.094705	practice	24	0	4	orientation	0.650000	1	0	0	absent	1	529	80.008
cac2	Crossover_4	1.0-rc12	20101022.094709	practice	25	1	8	2v5	0.100000	1	0	0	present	1	547	80.008
cac2	Crossover_4	1.0-rc12	20101022.094713	practice	26	1	4	orientation	0.650000	1	0	0	present	1	552	80.007
cac2	Crossover_4	1.0-rc12	20101022.094716	practice	27	0	2	2v5	0.100000	1	0	0	absent	1	636	79.998
cac2	Crossover_4	1.0-rc12	20101022.094720	practice	28	0	1	orientation	0.650000	1	0	0	absent	1	562	80.005
cac2	Crossover_4	1.0-rc12	20101022.094724	practice	29	0	1	orientation	0.650000	1	0	0	absent	1	546	80.004
cac2	Crossover_4	1.0-rc12	20101022.094728	practice	30	1	1	orientation	0.650000	1	0	0	present	1	510	80.012
cac2	Crossover_4	1.0-rc12	20101022.094731	practice	31	0	1	2v5	0.100000	1	0	0	absent	1	546	80.003
cac2	Crossover_4	1.0-rc12	20101022.094735	practice	32	1	4	2v5	0.100000	1	0	0	present	1	670	80.006
cac2	Crossover_4	1.0-rc12	20101022.094739	practice	33	1	1	2v5	0.100000	1	0	0	present	1	519	80.010
cac2	Crossover_4	1.0-rc12	20101022.094742	practice	34	0	8	orientation	0.650000	1	0	0	absent	1	513	80.004
cac2	Crossover_4	1.0-rc12	20101022.094746	practice	35	0	2	2v5	0.100000	1	0	0	absent	1	1403	80.007
cac2	Crossover_4	1.0-rc12	20101022.094751	practice	36	1	1	2v5	0.100000	1	0	0	present	1	664	80.006
cac2	Crossover_4	1.0-rc12	20101022.094755	practice	37	1	8	orientation	0.650000	1	0	0	present	1	729	80.007
cac2	Crossover_4	1.0-rc12	20101022.094758	practice	38	1	4	2v5	0.100000	1	0	0	present	1	611	80.015
cac2	Crossover_4	1.0-rc12	20101022.094802	practice	39	1	8	2v5	0.100000	1	0	0	present	1	1061	80.002
cac2	Crossover_4	1.0-rc12	20101022.094806	practice	40	0	1	2v5	0.100000	1	0	0	absent	1	600	80.006
cac2	Crossover_4	1.0-rc12	20101022.094810	practice	41	0	8	orientation	0.650000	1	0	0	absent	1	833	80.005
cac2	Crossover_4	1.0-rc12	20101022.094814	practice	42	0	8	orientation	0.650000	1	0	0	absent	1	655	80.016
cac2	Crossover_4	1.0-rc12	20101022.094818	practice	43	0	2	2v5	0.100000	1	0	0	absent	1	602	80.004
cac2	Crossover_4	1.0-rc12	20101022.094822	practice	44	1	8	orientation	0.650000	1	0	0	present	1	749	79.985
cac2	Crossover_4	1.0-rc12	20101022.094826	practice	45	0	4	2v5	0.100000	1	0	0	absent	1	571	79.995
cac2	Crossover_4	1.0-rc12	20101022.094829	practice	46	0	1	2v5	0.100000	1	0	0	absent	1	573	80.014
cac2	Crossover_4	1.0-rc12	20101022.094833	practice	47	1	1	orientation	0.650000	1	0	0	present	1	580	80.001
cac2	Crossover_4	1.0-rc12	20101022.094837	practice	48	0	1	orientation	0.650000	1	0	0	absent	1	760	79.999
cac2	Crossover_4	1.0-rc12	20101022.094841	practice	49	1	2	2v5	0.100000	1	0	0	present	1	556	79.997
cac2	Crossover_4	1.0-rc12	20101022.094845	practice	50	1	2	orientation	0.650000	1	0	0	present	1	562	80.001
cac2	Crossover_4	1.0-rc12	20101022.094916	practice	51	0	2	2v5	0.100000	1	0	0	absent	1	646	80.010
cac2	Crossover_4	1.0-rc12	20101022.094920	practice	52	0	8	2v5	0.100000	1	0	0	absent	1	508	80.012
cac2	Crossover_4	1.0-rc12	20101022.094924	practice	53	1	4	2v5	0.100000	1	0	0	present	1	528	79.999
cac2	Crossover_4	1.0-rc12	20101022.094928	practice	54	1	2	orientation	0.650000	1	0	0	present	1	681	80.006
cac2	Crossover_4	1.0-rc12	20101022.094931	practice	55	1	2	orientation	0.650000	1	0	0	present	1	498	80.003
cac2	Crossover_4	1.0-rc12	20101022.094935	practice	56	0	2	2v5	0.100000	1	0	0	absent	1	711	80.000
cac2	Crossover_4	1.0-rc12	20101022.094939	practice	57	1	8	orientation	0.650000	1	0	0	present	1	521	80.006
cac2	Crossover_4	1.0-rc12	20101022.094943	practice	58	1	8	2v5	0.100000	1	0	0	present	1	571	80.000
cac2	Crossover_4	1.0-rc12	20101022.094946	practice	59	0	1	orientation	0.650000	1	0	0	absent	1	470	79.997
cac2	Crossover_4	1.0-rc12	20101022.094950	practice	60	1	1	2v5	0.100000	1	0	0	present	1	1518	80.017
cac2	Crossover_4	1.0-rc12	20101022.094955	practice	61	0	4	2v5	0.100000	1	0	0	absent	1	749	80.009
cac2	Crossover_4	1.0-rc12	20101022.094959	practice	62	1	1	orientation	0.650000	1	0	0	absent	0	1086	79.998
cac2	Crossover_4	1.0-rc12	20101022.095003	practice	63	0	4	orientation	0.650000	1	0	0	absent	1	729	79.998
cac2	Crossover_4	1.0-rc12	20101022.095007	practice	64	1	4	2v5	0.100000	1	0	0	present	1	562	80.004
cac2	Crossover_4	1.0-rc12	20101022.095010	practice	65	1	8	orientation	0.650000	1	0	0	present	1	596	80.007
cac2	Crossover_4	1.0-rc12	20101022.095014	practice	66	1	2	orientation	0.650000	1	0	0	present	1	512	80.000
cac2	Crossover_4	1.0-rc12	20101022.095018	practice	67	0	8	orientation	0.650000	1	0	0	absent	1	819	80.005
cac2	Crossover_4	1.0-rc12	20101022.095022	practice	68	0	1	orientation	0.650000	1	0	0	absent	1	635	80.003
cac2	Crossover_4	1.0-rc12	20101022.095026	practice	69	0	1	2v5	0.100000	1	0	0	absent	1	659	79.998
cac2	Crossover_4	1.0-rc12	20101022.095030	practice	70	0	2	orientation	0.650000	1	0	0	absent	1	478	80.010
cac2	Crossover_4	1.0-rc12	20101022.095033	practice	71	1	8	2v5	0.100000	1	0	0	absent	0	630	79.967
cac2	Crossover_4	1.0-rc12	20101022.095037	practice	72	1	1	2v5	0.100000	1	0	0	present	1	538	80.006
cac2	Crossover_4	1.0-rc12	20101022.095041	practice	73	1	2	2v5	0.100000	1	0	0	present	1	556	80.009
cac2	Crossover_4	1.0-rc12	20101022.095044	practice	74	1	4	orientation	0.650000	1	0	0	present	1	648	80.004
cac2	Crossover_4	1.0-rc12	20101022.095048	practice	75	0	4	orientation	0.650000	1	0	0	absent	1	642	80.009
cac2	Crossover_4	1.0-rc12	20101022.095052	practice	76	0	2	orientation	0.650000	1	0	0	absent	1	512	79.998
cac2	Crossover_4	1.0-rc12	20101022.095056	practice	77	1	2	2v5	0.100000	1	0	0	present	1	777	80.000
cac2	Crossover_4	1.0-rc12	20101022.095100	practice	78	1	2	2v5	0.100000	1	0	0	present	1	555	80.000
cac2	Crossover_4	1.0-rc12	20101022.095103	practice	79	1	4	orientation	0.650000	1	0	0	present	1	574	80.012
cac2	Crossover_4	1.0-rc12	20101022.095107	practice	80	1	4	orientation	0.650000	1	0	0	present	1	826	80.014
cac2	Crossover_4	1.0-rc12	20101022.095111	practice	81	1	8	2v5	0.100000	1	0	0	present	1	596	80.012
cac2	Crossover_4	1.0-rc12	20101022.095115	practice	82	0	1	orientation	0.650000	1	0	0	absent	1	806	80.003
cac2	Crossover_4	1.0-rc12	20101022.095119	practice	83	0	8	2v5	0.100000	1	0	0	present	0	560	80.017
cac2	Crossover_4	1.0-rc12	20101022.095123	practice	84	0	8	orientation	0.650000	1	0	0	absent	1	590	80.012
cac2	Crossover_4	1.0-rc12	20101022.095126	practice	85	1	2	orientation	0.650000	1	0	0	present	1	486	80.009
cac2	Crossover_4	1.0-rc12	20101022.095130	practice	86	0	4	2v5	0.100000	1	0	0	present	0	1014	79.999
cac2	Crossover_4	1.0-rc12	20101022.095134	practice	87	0	1	2v5	0.100000	1	0	0	absent	1	618	80.015
cac2	Crossover_4	1.0-rc12	20101022.095138	practice	88	1	4	orientation	0.650000	1	0	0	present	1	715	79.997
cac2	Crossover_4	1.0-rc12	20101022.095142	practice	89	0	8	2v5	0.100000	1	0	0	absent	1	691	80.000
cac2	Crossover_4	1.0-rc12	20101022.095146	practice	90	0	2	orientation	0.650000	1	0	0	absent	1	588	80.008
cac2	Crossover_4	1.0-rc12	20101022.095150	practice	91	0	2	orientation	0.650000	1	0	0	absent	1	514	80.007
cac2	Crossover_4	1.0-rc12	20101022.095153	practice	92	0	8	orientation	0.650000	1	0	0	absent	1	500	80.003
cac2	Crossover_4	1.0-rc12	20101022.095157	practice	93	0	2	orientation	0.650000	1	0	0	absent	1	445	80.006
cac2	Crossover_4	1.0-rc12	20101022.095201	practice	94	1	4	2v5	0.100000	1	0	0	present	1	526	80.000
cac2	Crossover_4	1.0-rc12	20101022.095204	practice	95	1	4	2v5	0.100000	1	0	0	present	1	538	80.000
cac2	Crossover_4	1.0-rc12	20101022.095208	practice	96	1	2	orientation	0.650000	1	0	0	present	1	622	79.998
cac2	Crossover_4	1.0-rc12	20101022.095212	practice	97	0	8	2v5	0.100000	1	0	0	absent	1	740	80.006
cac2	Crossover_4	1.0-rc12	20101022.095216	practice	98	1	4	2v5	0.100000	1	0	0	present	1	487	80.008
cac2	Crossover_4	1.0-rc12	20101022.095219	practice	99	1	2	2v5	0.100000	1	0	0	present	1	546	80.005
cac2	Crossover_4	1.0-rc12	20101022.095223	practice	100	0	4	orientation	0.650000	1	0	0	absent	1	726	80.007
cac2	Crossover_4	1.0-rc12	20101022.095227	experimental	1	1	4	orientation	0.650000	1	0	0	present	1	631	80.006
cac2	Crossover_4	1.0-rc12	20101022.095231	experimental	2	0	4	2v5	0.100000	1	0	0	absent	1	949	80.001
cac2	Crossover_4	1.0-rc12	20101022.095235	experimental	3	0	2	2v5	0.100000	1	0	0	absent	1	765	80.000
cac2	Crossover_4	1.0-rc12	20101022.095239	experimental	4	1	1	2v5	0.100000	1	0	0	present	1	612	80.004
cac2	Crossover_4	1.0-rc12	20101022.095243	experimental	5	1	8	orientation	0.650000	1	0	0	present	1	943	80.006
cac2	Crossover_4	1.0-rc12	20101022.095247	experimental	6	1	4	2v5	0.100000	1	0	0	present	1	587	80.002
cac2	Crossover_4	1.0-rc12	20101022.095251	experimental	7	1	1	orientation	0.650000	1	0	0	present	1	554	79.999
cac2	Crossover_4	1.0-rc12	20101022.095254	experimental	8	1	8	orientation	0.650000	1	0	0	present	1	642	79.999
cac2	Crossover_4	1.0-rc12	20101022.095258	experimental	9	0	8	2v5	0.100000	1	0	0	present	0	1123	79.995
cac2	Crossover_4	1.0-rc12	20101022.095302	experimental	10	1	2	orientation	0.650000	1	0	0	absent	0	4618	80.012
cac2	Crossover_4	1.0-rc12	20101022.095310	experimental	11	1	8	orientation	0.650000	1	0	0	present	1	633	80.012
cac2	Crossover_4	1.0-rc12	20101022.095314	experimental	12	0	8	2v5	0.100000	1	0	0	present	0	1063	80.014
cac2	Crossover_4	1.0-rc12	20101022.095318	experimental	13	0	2	orientation	0.650000	1	0	0	absent	1	909	79.999
cac2	Crossover_4	1.0-rc12	20101022.095322	experimental	14	1	1	orientation	0.650000	1	0	0	present	1	545	80.008
cac2	Crossover_4	1.0-rc12	20101022.095326	experimental	15	0	4	orientation	0.650000	1	0	0	absent	1	867	79.994
cac2	Crossover_4	1.0-rc12	20101022.095330	experimental	16	1	8	2v5	0.100000	1	0	0	present	1	589	79.999
cac2	Crossover_4	1.0-rc12	20101022.095334	experimental	17	1	1	orientation	0.650000	1	0	0	present	1	545	80.013
cac2	Crossover_4	1.0-rc12	20101022.095337	experimental	18	0	1	orientation	0.650000	1	0	0	absent	1	742	79.999
cac2	Crossover_4	1.0-rc12	20101022.095341	experimental	19	1	8	2v5	0.100000	1	0	0	present	1	488	80.010
cac2	Crossover_4	1.0-rc12	20101022.095345	experimental	20	1	1	2v5	0.100000	1	0	0	present	1	435	80.010
cac2	Crossover_4	1.0-rc12	20101022.095349	experimental	21	0	2	orientation	0.650000	1	0	0	absent	1	628	80.008
cac2	Crossover_4	1.0-rc12	20101022.095352	experimental	22	0	2	orientation	0.650000	1	0	0	absent	1	565	80.014
cac2	Crossover_4	1.0-rc12	20101022.095356	experimental	23	1	2	orientation	0.650000	1	0	0	present	1	504	80.004
cac2	Crossover_4	1.0-rc12	20101022.095400	experimental	24	0	8	orientation	0.650000	1	0	0	absent	1	561	80.002
cac2	Crossover_4	1.0-rc12	20101022.095404	experimental	25	0	1	2v5	0.100000	1	0	0	absent	1	645	80.000
cac2	Crossover_4	1.0-rc12	20101022.095407	experimental	26	0	8	orientation	0.650000	1	0	0	absent	1	536	80.011
cac2	Crossover_4	1.0-rc12	20101022.095411	experimental	27	1	1	orientation	0.650000	1	0	0	present	1	547	80.005
cac2	Crossover_4	1.0-rc12	20101022.095415	experimental	28	1	8	orientation	0.650000	1	0	0	absent	0	545	80.009
cac2	Crossover_4	1.0-rc12	20101022.095419	experimental	29	0	8	orientation	0.650000	1	0	0	absent	1	901	80.015
cac2	Crossover_4	1.0-rc12	20101022.095423	experimental	30	0	2	2v5	0.100000	1	0	0	absent	1	736	80.005
cac2	Crossover_4	1.0-rc12	20101022.095427	experimental	31	0	2	orientation	0.650000	1	0	0	absent	1	480	80.006
cac2	Crossover_4	1.0-rc12	20101022.095430	experimental	32	1	2	orientation	0.650000	1	0	0	present	1	956	80.003
cac2	Crossover_4	1.0-rc12	20101022.095434	experimental	33	0	2	2v5	0.100000	1	0	0	absent	1	557	80.002
cac2	Crossover_4	1.0-rc12	20101022.095438	experimental	34	1	1	orientation	0.650000	1	0	0	present	1	511	80.016
cac2	Crossover_4	1.0-rc12	20101022.095442	experimental	35	1	4	2v5	0.100000	1	0	0	present	1	671	80.008
cac2	Crossover_4	1.0-rc12	20101022.095446	experimental	36	1	8	2v5	0.100000	1	0	0	absent	0	594	80.000
cac2	Crossover_4	1.0-rc12	20101022.095450	experimental	37	1	8	2v5	0.100000	1	0	0	absent	0	676	80.004
cac2	Crossover_4	1.0-rc12	20101022.095453	experimental	38	1	4	orientation	0.650000	1	0	0	present	1	663	80.006
cac2	Crossover_4	1.0-rc12	20101022.095457	experimental	39	1	8	2v5	0.100000	1	0	0	absent	0	1591	80.010
cac2	Crossover_4	1.0-rc12	20101022.095502	experimental	40	0	2	2v5	0.100000	1	0	0	absent	1	617	80.008
cac2	Crossover_4	1.0-rc12	20101022.095506	experimental	41	0	1	2v5	0.100000	1	0	0	absent	1	521	79.998
cac2	Crossover_4	1.0-rc12	20101022.095510	experimental	42	0	8	2v5	0.100000	1	0	0	present	0	1342	80.006
cac2	Crossover_4	1.0-rc12	20101022.095514	experimental	43	1	2	2v5	0.100000	1	0	0	present	1	543	80.013
cac2	Crossover_4	1.0-rc12	20101022.095518	experimental	44	0	1	2v5	0.100000	1	0	0	absent	1	503	79.997
cac2	Crossover_4	1.0-rc12	20101022.095521	experimental	45	1	1	orientation	0.650000	1	0	0	present	1	625	79.998
cac2	Crossover_4	1.0-rc12	20101022.095525	experimental	46	1	4	2v5	0.100000	1	0	0	present	1	1108	80.010
cac2	Crossover_4	1.0-rc12	20101022.095529	experimental	47	0	4	2v5	0.100000	1	0	0	absent	1	649	80.005
cac2	Crossover_4	1.0-rc12	20101022.095533	experimental	48	1	2	2v5	0.100000	1	0	0	present	1	1130	80.006
cac2	Crossover_4	1.0-rc12	20101022.095538	experimental	49	1	8	2v5	0.100000	1	0	0	present	1	527	80.010
cac2	Crossover_4	1.0-rc12	20101022.095541	experimental	50	0	8	orientation	0.650000	1	0	0	absent	1	1508	80.014
cac2	Crossover_4	1.0-rc12	20101022.095907	experimental	51	1	4	2v5	0.100000	1	0	0	present	1	554	80.015
cac2	Crossover_4	1.0-rc12	20101022.095911	experimental	52	0	4	orientation	0.650000	1	0	0	absent	1	501	79.995
cac2	Crossover_4	1.0-rc12	20101022.095914	experimental	53	0	2	2v5	0.100000	1	0	0	absent	1	755	80.008
cac2	Crossover_4	1.0-rc12	20101022.095918	experimental	54	0	4	orientation	0.650000	1	0	0	absent	1	554	80.016
cac2	Crossover_4	1.0-rc12	20101022.095922	experimental	55	0	8	2v5	0.100000	1	0	0	absent	1	681	80.019
cac2	Crossover_4	1.0-rc12	20101022.095926	experimental	56	0	1	orientation	0.650000	1	0	0	absent	1	519	80.008
cac2	Crossover_4	1.0-rc12	20101022.095930	experimental	57	1	8	orientation	0.650000	1	0	0	present	1	612	80.002
cac2	Crossover_4	1.0-rc12	20101022.095933	experimental	58	1	2	2v5	0.100000	1	0	0	present	1	469	79.999
cac2	Crossover_4	1.0-rc12	20101022.095937	experimental	59	1	8	2v5	0.100000	1	0	0	absent	0	688	80.007
cac2	Crossover_4	1.0-rc12	20101022.095941	experimental	60	1	1	orientation	0.650000	1	0	0	present	1	564	80.008
cac2	Crossover_4	1.0-rc12	20101022.095944	experimental	61	0	1	orientation	0.650000	1	0	0	absent	1	1453	80.015
cac2	Crossover_4	1.0-rc12	20101022.095949	experimental	62	1	2	orientation	0.650000	1	0	0	present	1	702	80.002
cac2	Crossover_4	1.0-rc12	20101022.095953	experimental	63	1	1	orientation	0.650000	1	0	0	present	1	523	80.005
cac2	Crossover_4	1.0-rc12	20101022.095957	experimental	64	0	4	2v5	0.100000	1	0	0	absent	1	1037	80.005
cac2	Crossover_4	1.0-rc12	20101022.100001	experimental	65	1	4	orientation	0.650000	1	0	0	absent	0	1073	79.997
cac2	Crossover_4	1.0-rc12	20101022.100005	experimental	66	1	8	orientation	0.650000	1	0	0	present	1	570	80.002
cac2	Crossover_4	1.0-rc12	20101022.100009	experimental	67	1	4	2v5	0.100000	1	0	0	present	1	967	80.003
cac2	Crossover_4	1.0-rc12	20101022.100013	experimental	68	1	2	2v5	0.100000	1	0	0	present	1	503	80.005
cac2	Crossover_4	1.0-rc12	20101022.100017	experimental	69	0	1	orientation	0.650000	1	0	0	absent	1	1076	80.006
cac2	Crossover_4	1.0-rc12	20101022.100021	experimental	70	1	4	2v5	0.100000	1	0	0	present	1	585	79.995
cac2	Crossover_4	1.0-rc12	20101022.100025	experimental	71	1	4	orientation	0.650000	1	0	0	present	1	592	80.004
cac2	Crossover_4	1.0-rc12	20101022.100028	experimental	72	0	4	orientation	0.650000	1	0	0	absent	1	564	80.009
cac2	Crossover_4	1.0-rc12	20101022.100032	experimental	73	0	1	orientation	0.650000	1	0	0	absent	1	596	80.015
cac2	Crossover_4	1.0-rc12	20101022.100036	experimental	74	1	4	2v5	0.100000	1	0	0	present	1	629	80.000
cac2	Crossover_4	1.0-rc12	20101022.100040	experimental	75	0	4	orientation	0.650000	1	0	0	absent	1	689	80.013
cac2	Crossover_4	1.0-rc12	20101022.100044	experimental	76	1	4	orientation	0.650000	1	0	0	present	1	561	80.011
cac2	Crossover_4	1.0-rc12	20101022.100047	experimental	77	1	8	orientation	0.650000	1	0	0	present	1	673	80.002
cac2	Crossover_4	1.0-rc12	20101022.100051	experimental	78	1	1	2v5	0.100000	1	0	0	present	1	546	79.997
cac2	Crossover_4	1.0-rc12	20101022.100055	experimental	79	1	4	orientation	0.650000	1	0	0	present	1	567	80.004
cac2	Crossover_4	1.0-rc12	20101022.100059	experimental	80	0	8	orientation	0.650000	1	0	0	present	0	1069	80.003
cac2	Crossover_4	1.0-rc12	20101022.100103	experimental	81	0	1	2v5	0.100000	1	0	0	absent	1	650	80.009
cac2	Crossover_4	1.0-rc12	20101022.100107	experimental	82	0	1	2v5	0.100000	1	0	0	absent	1	627	80.006
cac2	Crossover_4	1.0-rc12	20101022.100111	experimental	83	0	4	2v5	0.100000	1	0	0	absent	1	608	80.004
cac2	Crossover_4	1.0-rc12	20101022.100114	experimental	84	1	8	orientation	0.650000	1	0	0	present	1	540	80.019
cac2	Crossover_4	1.0-rc12	20101022.100118	experimental	85	1	4	orientation	0.650000	1	0	0	present	1	705	80.012
cac2	Crossover_4	1.0-rc12	20101022.100122	experimental	86	1	8	2v5	0.100000	1	0	0	present	1	587	79.994
cac2	Crossover_4	1.0-rc12	20101022.100126	experimental	87	0	2	2v5	0.100000	1	0	0	absent	1	676	80.005
cac2	Crossover_4	1.0-rc12	20101022.100129	experimental	88	0	8	2v5	0.100000	1	0	0	absent	1	589	80.005
cac2	Crossover_4	1.0-rc12	20101022.100133	experimental	89	1	2	2v5	0.100000	1	0	0	present	1	596	80.006
cac2	Crossover_4	1.0-rc12	20101022.100137	experimental	90	1	2	orientation	0.650000	1	0	0	present	1	563	80.011
cac2	Crossover_4	1.0-rc12	20101022.100141	experimental	91	1	4	2v5	0.100000	1	0	0	present	1	517	80.006
cac2	Crossover_4	1.0-rc12	20101022.100144	experimental	92	0	2	2v5	0.100000	1	0	0	absent	1	684	80.006
cac2	Crossover_4	1.0-rc12	20101022.100148	experimental	93	0	2	orientation	0.650000	1	0	0	absent	1	598	80.003
cac2	Crossover_4	1.0-rc12	20101022.100152	experimental	94	1	2	orientation	0.650000	1	0	0	present	1	596	80.008
cac2	Crossover_4	1.0-rc12	20101022.100156	experimental	95	0	1	orientation	0.650000	1	0	0	absent	1	844	80.000
cac2	Crossover_4	1.0-rc12	20101022.100200	experimental	96	1	1	orientation	0.650000	1	0	0	present	1	638	80.010
cac2	Crossover_4	1.0-rc12	20101022.100204	experimental	97	0	1	orientation	0.650000	1	0	0	absent	1	553	80.018
cac2	Crossover_4	1.0-rc12	20101022.100207	experimental	98	1	1	orientation	0.650000	1	0	0	present	1	631	79.999
cac2	Crossover_4	1.0-rc12	20101022.100211	experimental	99	1	2	orientation	0.650000	1	0	0	present	1	563	80.008
cac2	Crossover_4	1.0-rc12	20101022.100215	experimental	100	1	8	2v5	0.100000	1	0	0	present	1	782	80.008
cac2	Crossover_4	1.0-rc12	20101022.100234	experimental	101	0	4	orientation	0.650000	1	0	0	absent	1	557	79.997
cac2	Crossover_4	1.0-rc12	20101022.100238	experimental	102	0	2	2v5	0.100000	1	0	0	absent	1	580	80.012
cac2	Crossover_4	1.0-rc12	20101022.100242	experimental	103	1	1	2v5	0.100000	1	0	0	present	1	491	80.002
cac2	Crossover_4	1.0-rc12	20101022.100246	experimental	104	0	8	orientation	0.650000	1	0	0	absent	1	531	80.001
cac2	Crossover_4	1.0-rc12	20101022.100249	experimental	105	0	2	orientation	0.650000	1	0	0	absent	1	487	80.004
cac2	Crossover_4	1.0-rc12	20101022.100253	experimental	106	1	4	orientation	0.650000	1	0	0	present	1	553	80.002
cac2	Crossover_4	1.0-rc12	20101022.100257	experimental	107	1	2	2v5	0.100000	1	0	0	present	1	654	80.008
cac2	Crossover_4	1.0-rc12	20101022.100301	experimental	108	0	8	orientation	0.650000	1	0	0	absent	1	1066	79.999
cac2	Crossover_4	1.0-rc12	20101022.100305	experimental	109	0	8	orientation	0.650000	1	0	0	absent	1	1622	80.007
cac2	Crossover_4	1.0-rc12	20101022.100310	experimental	110	1	8	2v5	0.100000	1	0	0	present	1	586	80.020
cac2	Crossover_4	1.0-rc12	20101022.100313	experimental	111	0	2	orientation	0.650000	1	0	0	absent	1	538	80.001
cac2	Crossover_4	1.0-rc12	20101022.100317	experimental	112	1	1	2v5	0.100000	1	0	0	present	1	527	80.009
cac2	Crossover_4	1.0-rc12	20101022.100321	experimental	113	0	2	2v5	0.100000	1	0	0	absent	1	780	80.009
cac2	Crossover_4	1.0-rc12	20101022.100325	experimental	114	1	2	2v5	0.100000	1	0	0	present	1	486	80.014
cac2	Crossover_4	1.0-rc12	20101022.100328	experimental	115	0	1	orientation	0.650000	1	0	0	absent	1	538	80.015
cac2	Crossover_4	1.0-rc12	20101022.100332	experimental	116	1	8	orientation	0.650000	1	0	0	present	1	632	80.002
cac2	Crossover_4	1.0-rc12	20101022.100336	experimental	117	0	4	2v5	0.100000	1	0	0	present	0	784	79.998
cac2	Crossover_4	1.0-rc12	20101022.100340	experimental	118	0	8	2v5	0.100000	1	0	0	present	0	1187	80.033
cac2	Crossover_4	1.0-rc12	20101022.100344	experimental	119	1	2	2v5	0.100000	1	0	0	present	1	646	80.008
cac2	Crossover_4	1.0-rc12	20101022.100348	experimental	120	1	8	orientation	0.650000	1	0	0	present	1	578	80.016
cac2	Crossover_4	1.0-rc12	20101022.100352	experimental	121	1	4	2v5	0.100000	1	0	0	present	1	519	80.010
cac2	Crossover_4	1.0-rc12	20101022.100355	experimental	122	1	2	2v5	0.100000	1	0	0	present	1	597	80.003
cac2	Crossover_4	1.0-rc12	20101022.100359	experimental	123	0	1	2v5	0.100000	1	0	0	absent	1	535	80.002
cac2	Crossover_4	1.0-rc12	20101022.100403	experimental	124	0	4	2v5	0.100000	1	0	0	absent	1	595	80.006
cac2	Crossover_4	1.0-rc12	20101022.100407	experimental	125	0	8	2v5	0.100000	1	0	0	absent	1	1137	80.001
cac2	Crossover_4	1.0-rc12	20101022.100411	experimental	126	1	2	2v5	0.100000	1	0	0	present	1	666	80.014
cac2	Crossover_4	1.0-rc12	20101022.100415	experimental	127	1	8	2v5	0.100000	1	0	0	present	1	546	80.006
cac2	Crossover_4	1.0-rc12	20101022.100418	experimental	128	0	4	2v5	0.100000	1	0	0	absent	1	674	79.998
cac2	Crossover_4	1.0-rc12	20101022.100422	experimental	129	0	2	2v5	0.100000	1	0	0	absent	1	521	80.011
cac2	Crossover_4	1.0-rc12	20101022.100426	experimental	130	1	1	2v5	0.100000	1	0	0	present	1	436	80.006
cac2	Crossover_4	1.0-rc12	20101022.100429	experimental	131	0	2	orientation	0.650000	1	0	0	present	0	658	80.004
cac2	Crossover_4	1.0-rc12	20101022.100433	experimental	132	1	4	2v5	0.100000	1	0	0	present	1	780	80.005
cac2	Crossover_4	1.0-rc12	20101022.100437	experimental	133	0	8	2v5	0.100000	1	0	0	absent	1	622	80.010
cac2	Crossover_4	1.0-rc12	20101022.100441	experimental	134	0	2	2v5	0.100000	1	0	0	absent	1	561	80.008
cac2	Crossover_4	1.0-rc12	20101022.100445	experimental	135	0	8	2v5	0.100000	1	0	0	absent	1	662	80.013
cac2	Crossover_4	1.0-rc12	20101022.100449	experimental	136	0	8	2v5	0.100000	1	0	0	absent	1	614	79.999
cac2	Crossover_4	1.0-rc12	20101022.100452	experimental	137	0	8	orientation	0.650000	1	0	0	absent	1	617	80.001
cac2	Crossover_4	1.0-rc12	20101022.100456	experimental	138	0	8	orientation	0.650000	1	0	0	absent	1	740	80.017
cac2	Crossover_4	1.0-rc12	20101022.100500	experimental	139	1	2	orientation	0.650000	1	0	0	present	1	516	80.004
cac2	Crossover_4	1.0-rc12	20101022.100504	experimental	140	0	4	orientation	0.650000	1	0	0	absent	1	553	80.003
cac2	Crossover_4	1.0-rc12	20101022.100508	experimental	141	0	1	orientation	0.650000	1	0	0	absent	1	646	80.013
cac2	Crossover_4	1.0-rc12	20101022.100511	experimental	142	1	2	orientation	0.650000	1	0	0	present	1	827	80.012
cac2	Crossover_4	1.0-rc12	20101022.100515	experimental	143	0	8	orientation	0.650000	1	0	0	absent	1	715	80.013
cac2	Crossover_4	1.0-rc12	20101022.100519	experimental	144	1	1	orientation	0.650000	1	0	0	present	1	557	79.995
cac2	Crossover_4	1.0-rc12	20101022.100523	experimental	145	1	8	orientation	0.650000	1	0	0	present	1	544	79.997
cac2	Crossover_4	1.0-rc12	20101022.100527	experimental	146	1	4	2v5	0.100000	1	0	0	present	1	873	80.013
cac2	Crossover_4	1.0-rc12	20101022.100531	experimental	147	0	8	orientation	0.650000	1	0	0	absent	1	616	80.006
cac2	Crossover_4	1.0-rc12	20101022.100534	experimental	148	1	2	2v5	0.100000	1	0	0	present	1	632	80.001
cac2	Crossover_4	1.0-rc12	20101022.100538	experimental	149	0	2	orientation	0.650000	1	0	0	absent	1	529	79.998
cac2	Crossover_4	1.0-rc12	20101022.100542	experimental	150	1	8	2v5	0.100000	1	0	0	present	1	727	80.015
cac2	Crossover_4	1.0-rc12	20101022.100555	experimental	151	1	4	2v5	0.100000	1	0	0	present	1	519	80.003
cac2	Crossover_4	1.0-rc12	20101022.100559	experimental	152	0	2	orientation	0.650000	1	0	0	absent	1	519	80.000
cac2	Crossover_4	1.0-rc12	20101022.100602	experimental	153	1	2	2v5	0.100000	1	0	0	present	1	505	79.994
cac2	Crossover_4	1.0-rc12	20101022.100606	experimental	154	0	2	2v5	0.100000	1	0	0	absent	1	553	80.009
cac2	Crossover_4	1.0-rc12	20101022.100610	experimental	155	0	1	2v5	0.100000	1	0	0	absent	1	445	80.006
cac2	Crossover_4	1.0-rc12	20101022.100613	experimental	156	0	8	2v5	0.100000	1	0	0	absent	1	537	80.006
cac2	Crossover_4	1.0-rc12	20101022.100617	experimental	157	0	2	2v5	0.100000	1	0	0	absent	1	462	80.014
cac2	Crossover_4	1.0-rc12	20101022.100621	experimental	158	0	8	orientation	0.650000	1	0	0	absent	1	537	80.006
cac2	Crossover_4	1.0-rc12	20101022.100624	experimental	159	0	8	2v5	0.100000	1	0	0	absent	1	553	79.999
cac2	Crossover_4	1.0-rc12	20101022.100628	experimental	160	1	4	2v5	0.100000	1	0	0	present	1	680	80.000
cac2	Crossover_4	1.0-rc12	20101022.100632	experimental	161	1	4	2v5	0.100000	1	0	0	absent	0	585	80.016
cac2	Crossover_4	1.0-rc12	20101022.100636	experimental	162	0	4	orientation	0.650000	1	0	0	present	0	562	80.005
cac2	Crossover_4	1.0-rc12	20101022.100639	experimental	163	0	2	2v5	0.100000	1	0	0	absent	1	569	80.001
cac2	Crossover_4	1.0-rc12	20101022.100643	experimental	164	0	8	orientation	0.650000	1	0	0	absent	1	554	80.004
cac2	Crossover_4	1.0-rc12	20101022.100647	experimental	165	1	1	orientation	0.650000	1	0	0	present	1	563	80.015
cac2	Crossover_4	1.0-rc12	20101022.100651	experimental	166	0	4	2v5	0.100000	1	0	0	absent	1	553	79.997
cac2	Crossover_4	1.0-rc12	20101022.100654	experimental	167	1	4	orientation	0.650000	1	0	0	present	1	505	79.998
cac2	Crossover_4	1.0-rc12	20101022.100658	experimental	168	1	1	orientation	0.650000	1	0	0	present	1	523	79.996
cac2	Crossover_4	1.0-rc12	20101022.100702	experimental	169	1	2	orientation	0.650000	1	0	0	present	1	508	80.006
cac2	Crossover_4	1.0-rc12	20101022.100705	experimental	170	0	4	orientation	0.650000	1	0	0	absent	1	646	80.005
cac2	Crossover_4	1.0-rc12	20101022.100709	experimental	171	1	2	2v5	0.100000	1	0	0	present	1	513	80.003
cac2	Crossover_4	1.0-rc12	20101022.100713	experimental	172	0	8	2v5	0.100000	1	0	0	present	0	1026	79.996
cac2	Crossover_4	1.0-rc12	20101022.100717	experimental	173	0	4	orientation	0.650000	1	0	0	absent	1	688	80.002
cac2	Crossover_4	1.0-rc12	20101022.100721	experimental	174	1	8	orientation	0.650000	1	0	0	present	1	555	80.013
cac2	Crossover_4	1.0-rc12	20101022.100725	experimental	175	1	2	2v5	0.100000	1	0	0	present	1	540	80.001
cac2	Crossover_4	1.0-rc12	20101022.100728	experimental	176	0	8	2v5	0.100000	1	0	0	present	0	1077	80.001
cac2	Crossover_4	1.0-rc12	20101022.100733	experimental	177	0	4	orientation	0.650000	1	0	0	absent	1	606	80.001
cac2	Crossover_4	1.0-rc12	20101022.100736	experimental	178	0	8	orientation	0.650000	1	0	0	absent	1	456	80.010
cac2	Crossover_4	1.0-rc12	20101022.100740	experimental	179	0	1	orientation	0.650000	1	0	0	absent	1	589	79.996
cac2	Crossover_4	1.0-rc12	20101022.100744	experimental	180	1	2	orientation	0.650000	1	0	0	present	1	538	80.001
cac2	Crossover_4	1.0-rc12	20101022.100748	experimental	181	1	2	2v5	0.100000	1	0	0	present	1	579	79.996
cac2	Crossover_4	1.0-rc12	20101022.100751	experimental	182	0	2	orientation	0.650000	1	0	0	absent	1	461	80.005
cac2	Crossover_4	1.0-rc12	20101022.100755	experimental	183	1	4	2v5	0.100000	1	0	0	present	1	762	80.009
cac2	Crossover_4	1.0-rc12	20101022.100759	experimental	184	1	4	orientation	0.650000	1	0	0	present	1	686	80.005
cac2	Crossover_4	1.0-rc12	20101022.100803	experimental	185	0	4	orientation	0.650000	1	0	0	absent	1	518	80.011
cac2	Crossover_4	1.0-rc12	20101022.100807	experimental	186	0	8	2v5	0.100000	1	0	0	absent	1	687	80.010
cac2	Crossover_4	1.0-rc12	20101022.100810	experimental	187	1	1	orientation	0.650000	1	0	0	present	1	604	80.014
cac2	Crossover_4	1.0-rc12	20101022.100814	experimental	188	1	2	orientation	0.650000	1	0	0	present	1	485	80.005
cac2	Crossover_4	1.0-rc12	20101022.100818	experimental	189	0	1	2v5	0.100000	1	0	0	absent	1	562	80.008
cac2	Crossover_4	1.0-rc12	20101022.100821	experimental	190	0	1	orientation	0.650000	1	0	0	absent	1	689	80.006
cac2	Crossover_4	1.0-rc12	20101022.100825	experimental	191	1	2	orientation	0.650000	1	0	0	present	1	504	80.001
cac2	Crossover_4	1.0-rc12	20101022.100829	experimental	192	0	2	2v5	0.100000	1	0	0	absent	1	688	79.998
cac2	Crossover_4	1.0-rc12	20101022.100833	experimental	193	1	4	orientation	0.650000	1	0	0	present	1	705	80.010
cac2	Crossover_4	1.0-rc12	20101022.100837	experimental	194	1	4	2v5	0.100000	1	0	0	present	1	969	80.011
cac2	Crossover_4	1.0-rc12	20101022.100841	experimental	195	0	4	2v5	0.100000	1	0	0	absent	1	942	80.006
cac2	Crossover_4	1.0-rc12	20101022.100845	experimental	196	1	2	orientation	0.650000	1	0	0	present	1	537	80.019
cac2	Crossover_4	1.0-rc12	20101022.100849	experimental	197	0	4	orientation	0.650000	1	0	0	absent	1	577	80.001
cac2	Crossover_4	1.0-rc12	20101022.100853	experimental	198	1	1	2v5	0.100000	1	0	0	present	1	593	80.004
cac2	Crossover_4	1.0-rc12	20101022.100856	experimental	199	0	4	orientation	0.650000	1	0	0	absent	1	850	80.010
cac2	Crossover_4	1.0-rc12	20101022.100900	experimental	200	0	2	orientation	0.650000	1	0	0	absent	1	865	80.028
cac2	Crossover_4	1.0-rc12	20101022.101006	experimental	201	0	4	orientation	0.650000	1	0	0	absent	1	619	80.014
cac2	Crossover_4	1.0-rc12	20101022.101010	experimental	202	1	8	2v5	0.100000	1	0	0	present	1	501	80.008
cac2	Crossover_4	1.0-rc12	20101022.101013	experimental	203	0	4	orientation	0.650000	1	0	0	absent	1	439	80.000
cac2	Crossover_4	1.0-rc12	20101022.101017	experimental	204	0	1	2v5	0.100000	1	0	0	absent	1	620	80.004
cac2	Crossover_4	1.0-rc12	20101022.101021	experimental	205	0	4	2v5	0.100000	1	0	0	absent	1	527	80.005
cac2	Crossover_4	1.0-rc12	20101022.101024	experimental	206	0	8	2v5	0.100000	1	0	0	absent	1	514	80.004
cac2	Crossover_4	1.0-rc12	20101022.101028	experimental	207	1	4	orientation	0.650000	1	0	0	present	1	545	80.008
cac2	Crossover_4	1.0-rc12	20101022.101032	experimental	208	1	8	2v5	0.100000	1	0	0	present	1	1068	79.998
cac2	Crossover_4	1.0-rc12	20101022.101036	experimental	209	0	1	2v5	0.100000	1	0	0	absent	1	427	80.010
cac2	Crossover_4	1.0-rc12	20101022.101040	experimental	210	1	2	2v5	0.100000	1	0	0	present	1	587	80.017
cac2	Crossover_4	1.0-rc12	20101022.101043	experimental	211	1	4	2v5	0.100000	1	0	0	present	1	937	80.009
cac2	Crossover_4	1.0-rc12	20101022.101047	experimental	212	0	2	orientation	0.650000	1	0	0	absent	1	470	80.005
cac2	Crossover_4	1.0-rc12	20101022.101051	experimental	213	0	1	2v5	0.100000	1	0	0	absent	1	567	80.008
cac2	Crossover_4	1.0-rc12	20101022.101055	experimental	214	0	2	2v5	0.100000	1	0	0	absent	1	552	80.010
cac2	Crossover_4	1.0-rc12	20101022.101059	experimental	215	1	1	orientation	0.650000	1	0	0	present	1	521	80.015
cac2	Crossover_4	1.0-rc12	20101022.101102	experimental	216	0	1	orientation	0.650000	1	0	0	absent	1	436	80.003
cac2	Crossover_4	1.0-rc12	20101022.101106	experimental	217	0	2	orientation	0.650000	1	0	0	absent	1	571	80.011
cac2	Crossover_4	1.0-rc12	20101022.101110	experimental	218	1	1	2v5	0.100000	1	0	0	present	1	426	80.005
cac2	Crossover_4	1.0-rc12	20101022.101113	experimental	219	0	8	2v5	0.100000	1	0	0	absent	1	779	79.995
cac2	Crossover_4	1.0-rc12	20101022.101117	experimental	220	1	4	orientation	0.650000	1	0	0	present	1	521	79.996
cac2	Crossover_4	1.0-rc12	20101022.101121	experimental	221	0	1	orientation	0.650000	1	0	0	absent	1	598	80.009
cac2	Crossover_4	1.0-rc12	20101022.101125	experimental	222	1	4	orientation	0.650000	1	0	0	present	1	544	80.003
cac2	Crossover_4	1.0-rc12	20101022.101128	experimental	223	1	1	orientation	0.650000	1	0	0	present	1	498	80.006
cac2	Crossover_4	1.0-rc12	20101022.101132	experimental	224	0	8	2v5	0.100000	1	0	0	absent	1	726	80.010
cac2	Crossover_4	1.0-rc12	20101022.101136	experimental	225	1	8	2v5	0.100000	1	0	0	present	1	443	80.001
cac2	Crossover_4	1.0-rc12	20101022.101140	experimental	226	0	2	2v5	0.100000	1	0	0	absent	1	680	80.001
cac2	Crossover_4	1.0-rc12	20101022.101143	experimental	227	0	1	2v5	0.100000	1	0	0	absent	1	538	80.006
cac2	Crossover_4	1.0-rc12	20101022.101147	experimental	228	1	8	orientation	0.650000	1	0	0	present	1	706	80.010
cac2	Crossover_4	1.0-rc12	20101022.101151	experimental	229	0	8	orientation	0.650000	1	0	0	absent	1	935	80.000
cac2	Crossover_4	1.0-rc12	20101022.101155	experimental	230	1	2	2v5	0.100000	1	0	0	present	1	479	80.019
cac2	Crossover_4	1.0-rc12	20101022.101159	experimental	231	0	1	orientation	0.650000	1	0	0	absent	1	593	80.001
cac2	Crossover_4	1.0-rc12	20101022.101203	experimental	232	0	4	2v5	0.100000	1	0	0	absent	1	553	80.004
cac2	Crossover_4	1.0-rc12	20101022.101206	experimental	233	1	2	orientation	0.650000	1	0	0	present	1	530	80.013
cac2	Crossover_4	1.0-rc12	20101022.101210	experimental	234	1	8	2v5	0.100000	1	0	0	present	1	639	80.011
cac2	Crossover_4	1.0-rc12	20101022.101214	experimental	235	1	2	orientation	0.650000	1	0	0	present	1	522	79.998
cac2	Crossover_4	1.0-rc12	20101022.101218	experimental	236	1	4	2v5	0.100000	1	0	0	present	1	495	79.996
cac2	Crossover_4	1.0-rc12	20101022.101221	experimental	237	0	2	orientation	0.650000	1	0	0	absent	1	470	80.009
cac2	Crossover_4	1.0-rc12	20101022.101225	experimental	238	1	1	orientation	0.650000	1	0	0	present	1	553	80.007
cac2	Crossover_4	1.0-rc12	20101022.101229	experimental	239	0	2	2v5	0.100000	1	0	0	absent	1	644	80.009
cac2	Crossover_4	1.0-rc12	20101022.101233	experimental	240	0	1	2v5	0.100000	1	0	0	absent	1	578	80.002
cac2	Crossover_4	1.0-rc12	20101022.101236	experimental	241	1	4	orientation	0.650000	1	0	0	present	1	513	80.006
cac2	Crossover_4	1.0-rc12	20101022.101240	experimental	242	0	2	2v5	0.100000	1	0	0	absent	1	871	80.013
cac2	Crossover_4	1.0-rc12	20101022.101244	experimental	243	0	4	2v5	0.100000	1	0	0	absent	1	689	80.003
cac2	Crossover_4	1.0-rc12	20101022.101248	experimental	244	0	4	2v5	0.100000	1	0	0	absent	1	607	80.006
cac2	Crossover_4	1.0-rc12	20101022.101252	experimental	245	0	1	orientation	0.650000	1	0	0	absent	1	537	80.007
cac2	Crossover_4	1.0-rc12	20101022.101255	experimental	246	0	8	orientation	0.650000	1	0	0	absent	1	613	80.015
cac2	Crossover_4	1.0-rc12	20101022.101259	experimental	247	1	8	orientation	0.650000	1	0	0	absent	0	906	80.004
cac2	Crossover_4	1.0-rc12	20101022.101303	experimental	248	1	1	2v5	0.100000	1	0	0	present	1	451	80.017
cac2	Crossover_4	1.0-rc12	20101022.101307	experimental	249	1	8	2v5	0.100000	1	0	0	absent	0	646	80.012
cac2	Crossover_4	1.0-rc12	20101022.101311	experimental	250	0	8	2v5	0.100000	1	0	0	absent	1	926	80.005
cac2	Crossover_4	1.0-rc12	20101022.101409	experimental	251	1	4	2v5	0.100000	1	0	0	present	1	528	80.008
cac2	Crossover_4	1.0-rc12	20101022.101412	experimental	252	1	2	orientation	0.650000	1	0	0	present	1	546	80.015
cac2	Crossover_4	1.0-rc12	20101022.101416	experimental	253	1	2	2v5	0.100000	1	0	0	present	1	571	79.998
cac2	Crossover_4	1.0-rc12	20101022.101420	experimental	254	0	8	2v5	0.100000	1	0	0	present	0	775	79.999
cac2	Crossover_4	1.0-rc12	20101022.101424	experimental	255	0	1	orientation	0.650000	1	0	0	absent	1	596	80.011
cac2	Crossover_4	1.0-rc12	20101022.101427	experimental	256	1	4	orientation	0.650000	1	0	0	absent	0	470	80.007
cac2	Crossover_4	1.0-rc12	20101022.101431	experimental	257	1	1	2v5	0.100000	1	0	0	present	1	434	80.010
cac2	Crossover_4	1.0-rc12	20101022.101435	experimental	258	1	4	2v5	0.100000	1	0	0	present	1	486	80.002
cac2	Crossover_4	1.0-rc12	20101022.101438	experimental	259	0	4	2v5	0.100000	1	0	0	present	0	801	80.008
cac2	Crossover_4	1.0-rc12	20101022.101442	experimental	260	1	1	2v5	0.100000	1	0	0	present	1	445	80.007
cac2	Crossover_4	1.0-rc12	20101022.101446	experimental	261	1	4	orientation	0.650000	1	0	0	absent	0	494	80.012
cac2	Crossover_4	1.0-rc12	20101022.101450	experimental	262	1	8	orientation	0.650000	1	0	0	absent	0	595	80.008
cac2	Crossover_4	1.0-rc12	20101022.101453	experimental	263	0	1	2v5	0.100000	1	0	0	absent	1	564	80.013
cac2	Crossover_4	1.0-rc12	20101022.101457	experimental	264	0	8	2v5	0.100000	1	0	0	absent	1	574	80.014
cac2	Crossover_4	1.0-rc12	20101022.101501	experimental	265	1	8	2v5	0.100000	1	0	0	present	1	553	80.001
cac2	Crossover_4	1.0-rc12	20101022.101505	experimental	266	1	4	orientation	0.650000	1	0	0	present	1	643	80.011
cac2	Crossover_4	1.0-rc12	20101022.101508	experimental	267	1	8	orientation	0.650000	1	0	0	absent	0	588	80.011
cac2	Crossover_4	1.0-rc12	20101022.101512	experimental	268	1	4	orientation	0.650000	1	0	0	present	1	485	79.999
cac2	Crossover_4	1.0-rc12	20101022.101516	experimental	269	1	2	orientation	0.650000	1	0	0	present	1	561	80.015
cac2	Crossover_4	1.0-rc12	20101022.101520	experimental	270	0	4	2v5	0.100000	1	0	0	absent	1	587	79.999
cac2	Crossover_4	1.0-rc12	20101022.101523	experimental	271	1	1	2v5	0.100000	1	0	0	present	1	589	80.010
cac2	Crossover_4	1.0-rc12	20101022.101527	experimental	272	0	4	orientation	0.650000	1	0	0	absent	1	629	80.009
cac2	Crossover_4	1.0-rc12	20101022.101531	experimental	273	0	1	2v5	0.100000	1	0	0	absent	1	469	79.999
cac2	Crossover_4	1.0-rc12	20101022.101535	experimental	274	0	4	2v5	0.100000	1	0	0	present	0	644	80.008
cac2	Crossover_4	1.0-rc12	20101022.101538	experimental	275	1	2	orientation	0.650000	1	0	0	present	1	522	80.018
cac2	Crossover_4	1.0-rc12	20101022.101542	experimental	276	0	8	2v5	0.100000	1	0	0	absent	1	797	80.008
cac2	Crossover_4	1.0-rc12	20101022.101546	experimental	277	1	8	2v5	0.100000	1	0	0	absent	0	680	80.003
cac2	Crossover_4	1.0-rc12	20101022.101550	experimental	278	0	4	2v5	0.100000	1	0	0	absent	1	1133	80.006
cac2	Crossover_4	1.0-rc12	20101022.101554	experimental	279	0	1	orientation	0.650000	1	0	0	absent	1	511	80.001
cac2	Crossover_4	1.0-rc12	20101022.101558	experimental	280	0	2	orientation	0.650000	1	0	0	absent	1	661	80.007
cac2	Crossover_4	1.0-rc12	20101022.101602	experimental	281	0	2	2v5	0.100000	1	0	0	absent	1	572	80.013
cac2	Crossover_4	1.0-rc12	20101022.101605	experimental	282	0	1	2v5	0.100000	1	0	0	absent	1	597	80.010
cac2	Crossover_4	1.0-rc12	20101022.101609	experimental	283	1	1	2v5	0.100000	1	0	0	present	1	612	79.999
cac2	Crossover_4	1.0-rc12	20101022.101613	experimental	284	1	1	2v5	0.100000	1	0	0	present	1	477	79.995
cac2	Crossover_4	1.0-rc12	20101022.101617	experimental	285	1	4	orientation	0.650000	1	0	0	present	1	519	80.005
cac2	Crossover_4	1.0-rc12	20101022.101620	experimental	286	0	2	orientation	0.650000	1	0	0	absent	1	531	80.002
cac2	Crossover_4	1.0-rc12	20101022.101624	experimental	287	1	2	orientation	0.650000	1	0	0	present	1	477	80.011
cac2	Crossover_4	1.0-rc12	20101022.101628	experimental	288	1	4	2v5	0.100000	1	0	0	absent	0	644	80.002
cac2	Crossover_4	1.0-rc12	20101022.101631	experimental	289	1	1	orientation	0.650000	1	0	0	present	1	545	79.997
cac2	Crossover_4	1.0-rc12	20101022.101635	experimental	290	0	2	orientation	0.650000	1	0	0	absent	1	539	80.009
cac2	Crossover_4	1.0-rc12	20101022.101639	experimental	291	0	2	2v5	0.100000	1	0	0	absent	1	713	80.007
cac2	Crossover_4	1.0-rc12	20101022.101643	experimental	292	1	1	orientation	0.650000	1	0	0	present	1	459	79.999
cac2	Crossover_4	1.0-rc12	20101022.101646	experimental	293	0	8	orientation	0.650000	1	0	0	absent	1	511	79.995
cac2	Crossover_4	1.0-rc12	20101022.101650	experimental	294	1	1	2v5	0.100000	1	0	0	present	1	924	80.005
cac2	Crossover_4	1.0-rc12	20101022.101654	experimental	295	0	4	orientation	0.650000	1	0	0	absent	1	579	80.008
cac2	Crossover_4	1.0-rc12	20101022.101658	experimental	296	1	1	2v5	0.100000	1	0	0	present	1	427	80.013
cac2	Crossover_4	1.0-rc12	20101022.101701	experimental	297	0	1	orientation	0.650000	1	0	0	absent	1	504	80.001
cac2	Crossover_4	1.0-rc12	20101022.101705	experimental	298	0	2	2v5	0.100000	1	0	0	absent	1	654	80.014
cac2	Crossover_4	1.0-rc12	20101022.101709	experimental	299	0	1	2v5	0.100000	1	0	0	absent	1	830	80.018
cac2	Crossover_4	1.0-rc12	20101022.101713	experimental	300	1	4	orientation	0.650000	1	0	0	present	1	495	80.010
cac2	Crossover_4	1.0-rc12	20101022.101738	experimental	301	0	4	orientation	0.650000	1	0	0	present	0	501	80.002
cac2	Crossover_4	1.0-rc12	20101022.101741	experimental	302	0	2	orientation	0.650000	1	0	0	absent	1	453	80.013
cac2	Crossover_4	1.0-rc12	20101022.101745	experimental	303	1	1	orientation	0.650000	1	0	0	present	1	476	80.013
cac2	Crossover_4	1.0-rc12	20101022.101749	experimental	304	1	2	orientation	0.650000	1	0	0	present	1	485	80.010
cac2	Crossover_4	1.0-rc12	20101022.101752	experimental	305	0	8	2v5	0.100000	1	0	0	present	0	523	80.004
cac2	Crossover_4	1.0-rc12	20101022.101756	experimental	306	1	2	orientation	0.650000	1	0	0	absent	0	443	80.002
cac2	Crossover_4	1.0-rc12	20101022.101800	experimental	307	0	8	2v5	0.100000	1	0	0	present	0	1022	79.999
cac2	Crossover_4	1.0-rc12	20101022.101804	experimental	308	1	8	2v5	0.100000	1	0	0	present	1	764	80.014
cac2	Crossover_4	1.0-rc12	20101022.101808	experimental	309	0	8	orientation	0.650000	1	0	0	present	0	586	80.004
cac2	Crossover_4	1.0-rc12	20101022.101811	experimental	310	1	4	orientation	0.650000	1	0	0	present	1	594	80.018
cac2	Crossover_4	1.0-rc12	20101022.101815	experimental	311	0	8	orientation	0.650000	1	0	0	present	0	868	80.002
cac2	Crossover_4	1.0-rc12	20101022.101819	experimental	312	1	2	2v5	0.100000	1	0	0	present	1	504	80.005
cac2	Crossover_4	1.0-rc12	20101022.101823	experimental	313	0	2	2v5	0.100000	1	0	0	absent	1	916	80.001
cac2	Crossover_4	1.0-rc12	20101022.101827	experimental	314	0	4	orientation	0.650000	1	0	0	absent	1	614	80.004
cac2	Crossover_4	1.0-rc12	20101022.101831	experimental	315	1	4	2v5	0.100000	1	0	0	present	1	561	80.006
cac2	Crossover_4	1.0-rc12	20101022.101834	experimental	316	0	1	orientation	0.650000	1	0	0	absent	1	461	80.003
cac2	Crossover_4	1.0-rc12	20101022.101838	experimental	317	0	4	2v5	0.100000	1	0	0	present	0	512	80.007
cac2	Crossover_4	1.0-rc12	20101022.101842	experimental	318	1	8	2v5	0.100000	1	0	0	present	1	646	80.009
cac2	Crossover_4	1.0-rc12	20101022.101846	experimental	319	0	1	2v5	0.100000	1	0	0	absent	1	595	80.014
cac2	Crossover_4	1.0-rc12	20101022.101849	experimental	320	0	1	2v5	0.100000	1	0	0	absent	1	473	80.014
cac2	Crossover_4	1.0-rc12	20101022.101853	experimental	321	1	4	2v5	0.100000	1	0	0	present	1	614	80.003
cac2	Crossover_4	1.0-rc12	20101022.101857	experimental	322	0	4	2v5	0.100000	1	0	0	absent	1	712	80.005
cac2	Crossover_4	1.0-rc12	20101022.101901	experimental	323	0	2	orientation	0.650000	1	0	0	absent	1	557	80.002
cac2	Crossover_4	1.0-rc12	20101022.101905	experimental	324	1	8	2v5	0.100000	1	0	0	present	1	574	80.004
cac2	Crossover_4	1.0-rc12	20101022.101908	experimental	325	0	8	orientation	0.650000	1	0	0	absent	1	709	80.007
cac2	Crossover_4	1.0-rc12	20101022.101912	experimental	326	1	8	orientation	0.650000	1	0	0	present	1	896	80.008
cac2	Crossover_4	1.0-rc12	20101022.101916	experimental	327	0	1	2v5	0.100000	1	0	0	present	0	1231	80.009
cac2	Crossover_4	1.0-rc12	20101022.101921	experimental	328	0	1	orientation	0.650000	1	0	0	absent	1	552	80.004
cac2	Crossover_4	1.0-rc12	20101022.101924	experimental	329	1	8	2v5	0.100000	1	0	0	present	1	660	80.006
cac2	Crossover_4	1.0-rc12	20101022.101928	experimental	330	1	8	orientation	0.650000	1	0	0	present	1	600	80.005
cac2	Crossover_4	1.0-rc12	20101022.101932	experimental	331	0	8	orientation	0.650000	1	0	0	absent	1	563	80.010
cac2	Crossover_4	1.0-rc12	20101022.101936	experimental	332	1	8	orientation	0.650000	1	0	0	present	1	545	80.009
cac2	Crossover_4	1.0-rc12	20101022.101939	experimental	333	0	1	2v5	0.100000	1	0	0	absent	1	1378	80.013
cac2	Crossover_4	1.0-rc12	20101022.101944	experimental	334	1	8	orientation	0.650000	1	0	0	present	1	573	80.008
cac2	Crossover_4	1.0-rc12	20101022.101948	experimental	335	1	4	orientation	0.650000	1	0	0	present	1	578	80.004
cac2	Crossover_4	1.0-rc12	20101022.101951	experimental	336	0	1	2v5	0.100000	1	0	0	absent	1	1791	80.012
cac2	Crossover_4	1.0-rc12	20101022.101956	experimental	337	1	8	2v5	0.100000	1	0	0	absent	0	571	80.003
cac2	Crossover_4	1.0-rc12	20101022.102000	experimental	338	0	4	2v5	0.100000	1	0	0	absent	1	930	80.001
cac2	Crossover_4	1.0-rc12	20101022.102004	experimental	339	0	1	orientation	0.650000	1	0	0	absent	1	690	80.002
cac2	Crossover_4	1.0-rc12	20101022.102008	experimental	340	1	4	orientation	0.650000	1	0	0	present	1	576	80.005
cac2	Crossover_4	1.0-rc12	20101022.102012	experimental	341	0	1	orientation	0.650000	1	0	0	absent	1	519	79.999
cac2	Crossover_4	1.0-rc12	20101022.102015	experimental	342	0	2	2v5	0.100000	1	0	0	absent	1	558	80.002
cac2	Crossover_4	1.0-rc12	20101022.102019	experimental	343	1	1	2v5	0.100000	1	0	0	present	1	520	80.004
cac2	Crossover_4	1.0-rc12	20101022.102023	experimental	344	0	8	orientation	0.650000	1	0	0	absent	1	497	80.014
cac2	Crossover_4	1.0-rc12	20101022.102027	experimental	345	1	2	orientation	0.650000	1	0	0	present	1	502	79.999
cac2	Crossover_4	1.0-rc12	20101022.102030	experimental	346	1	1	orientation	0.650000	1	0	0	present	1	551	80.008
cac2	Crossover_4	1.0-rc12	20101022.102034	experimental	347	0	8	2v5	0.100000	1	0	0	absent	1	908	80.010
cac2	Crossover_4	1.0-rc12	20101022.102038	experimental	348	0	1	2v5	0.100000	1	0	0	absent	1	528	79.996
cac2	Crossover_4	1.0-rc12	20101022.102042	experimental	349	1	4	2v5	0.100000	1	0	0	present	1	512	80.009
cac2	Crossover_4	1.0-rc12	20101022.102045	experimental	350	1	8	orientation	0.650000	1	0	0	present	1	521	80.005
cac2	Crossover_4	1.0-rc12	20101022.102132	experimental	351	1	2	2v5	0.100000	1	0	0	present	1	569	80.009
cac2	Crossover_4	1.0-rc12	20101022.102136	experimental	352	0	2	orientation	0.650000	1	0	0	absent	1	460	80.004
cac2	Crossover_4	1.0-rc12	20101022.102140	experimental	353	0	4	orientation	0.650000	1	0	0	absent	1	426	80.007
cac2	Crossover_4	1.0-rc12	20101022.102143	experimental	354	1	2	orientation	0.650000	1	0	0	present	1	529	80.008
cac2	Crossover_4	1.0-rc12	20101022.102147	experimental	355	0	1	2v5	0.100000	1	0	0	absent	1	596	80.013
cac2	Crossover_4	1.0-rc12	20101022.102151	experimental	356	0	2	orientation	0.650000	1	0	0	absent	1	503	80.009
cac2	Crossover_4	1.0-rc12	20101022.102154	experimental	357	0	4	2v5	0.100000	1	0	0	absent	1	580	80.004
cac2	Crossover_4	1.0-rc12	20101022.102158	experimental	358	1	8	orientation	0.650000	1	0	0	present	1	603	79.996
cac2	Crossover_4	1.0-rc12	20101022.102202	experimental	359	1	4	2v5	0.100000	1	0	0	present	1	529	80.017
cac2	Crossover_4	1.0-rc12	20101022.102205	experimental	360	1	1	2v5	0.100000	1	0	0	present	1	521	80.006
cac2	Crossover_4	1.0-rc12	20101022.102209	experimental	361	1	2	2v5	0.100000	1	0	0	present	1	478	80.007
cac2	Crossover_4	1.0-rc12	20101022.102213	experimental	362	0	4	2v5	0.100000	1	0	0	present	0	654	80.007
cac2	Crossover_4	1.0-rc12	20101022.102217	experimental	363	0	8	orientation	0.650000	1	0	0	absent	1	570	80.005
cac2	Crossover_4	1.0-rc12	20101022.102220	experimental	364	0	1	orientation	0.650000	1	0	0	absent	1	444	80.003
cac2	Crossover_4	1.0-rc12	20101022.102224	experimental	365	1	1	orientation	0.650000	1	0	0	present	1	562	80.001
cac2	Crossover_4	1.0-rc12	20101022.102228	experimental	366	0	4	2v5	0.100000	1	0	0	absent	1	655	80.002
cac2	Crossover_4	1.0-rc12	20101022.102231	experimental	367	1	2	2v5	0.100000	1	0	0	present	1	497	80.000
cac2	Crossover_4	1.0-rc12	20101022.102235	experimental	368	0	4	orientation	0.650000	1	0	0	present	0	1033	80.015
cac2	Crossover_4	1.0-rc12	20101022.102239	experimental	369	0	2	orientation	0.650000	1	0	0	absent	1	427	80.006
cac2	Crossover_4	1.0-rc12	20101022.102243	experimental	370	0	4	orientation	0.650000	1	0	0	absent	1	461	80.014
cac2	Crossover_4	1.0-rc12	20101022.102247	experimental	371	1	2	2v5	0.100000	1	0	0	present	1	521	80.013
cac2	Crossover_4	1.0-rc12	20101022.102250	experimental	372	1	1	2v5	0.100000	1	0	0	present	1	512	80.001
cac2	Crossover_4	1.0-rc12	20101022.102254	experimental	373	0	2	orientation	0.650000	1	0	0	absent	1	519	80.004
cac2	Crossover_4	1.0-rc12	20101022.102258	experimental	374	1	2	orientation	0.650000	1	0	0	present	1	588	80.003
cac2	Crossover_4	1.0-rc12	20101022.102301	experimental	375	1	8	orientation	0.650000	1	0	0	present	1	503	80.013
cac2	Crossover_4	1.0-rc12	20101022.102305	experimental	376	1	2	2v5	0.100000	1	0	0	absent	0	494	79.999
cac2	Crossover_4	1.0-rc12	20101022.102309	experimental	377	0	1	orientation	0.650000	1	0	0	absent	1	620	80.005
cac2	Crossover_4	1.0-rc12	20101022.102312	experimental	378	1	1	2v5	0.100000	1	0	0	present	1	420	80.006
cac2	Crossover_4	1.0-rc12	20101022.102316	experimental	379	1	1	2v5	0.100000	1	0	0	present	1	419	80.018
cac2	Crossover_4	1.0-rc12	20101022.102320	experimental	380	1	1	2v5	0.100000	1	0	0	present	1	452	80.002
cac2	Crossover_4	1.0-rc12	20101022.102323	experimental	381	1	1	orientation	0.650000	1	0	0	present	1	630	79.999
cac2	Crossover_4	1.0-rc12	20101022.102327	experimental	382	0	4	2v5	0.100000	1	0	0	present	0	680	80.011
cac2	Crossover_4	1.0-rc12	20101022.102331	experimental	383	0	4	orientation	0.650000	1	0	0	present	0	754	79.998
cac2	Crossover_4	1.0-rc12	20101022.102335	experimental	384	1	1	2v5	0.100000	1	0	0	present	1	428	80.005
cac2	Crossover_4	1.0-rc12	20101022.102338	experimental	385	0	1	2v5	0.100000	1	0	0	absent	1	537	80.008
cac2	Crossover_4	1.0-rc12	20101022.102342	experimental	386	1	8	2v5	0.100000	1	0	0	present	1	824	80.007
cac2	Crossover_4	1.0-rc12	20101022.102346	experimental	387	0	4	orientation	0.650000	1	0	0	absent	1	511	80.013
cac2	Crossover_4	1.0-rc12	20101022.102350	experimental	388	0	8	orientation	0.650000	1	0	0	absent	1	729	79.996
cac2	Crossover_4	1.0-rc12	20101022.102354	experimental	389	1	4	orientation	0.650000	1	0	0	present	1	495	80.000
cac2	Crossover_4	1.0-rc12	20101022.102357	experimental	390	0	4	2v5	0.100000	1	0	0	present	0	1184	80.009
cac2	Crossover_4	1.0-rc12	20101022.102402	experimental	391	1	2	2v5	0.100000	1	0	0	present	1	451	80.006
cac2	Crossover_4	1.0-rc12	20101022.102405	experimental	392	1	1	orientation	0.650000	1	0	0	present	1	497	79.995
cac2	Crossover_4	1.0-rc12	20101022.102409	experimental	393	0	2	orientation	0.650000	1	0	0	absent	1	536	79.997
cac2	Crossover_4	1.0-rc12	20101022.102413	experimental	394	1	1	2v5	0.100000	1	0	0	present	1	403	80.013
cac2	Crossover_4	1.0-rc12	20101022.102416	experimental	395	1	8	orientation	0.650000	1	0	0	absent	0	519	80.003
cac2	Crossover_4	1.0-rc12	20101022.102420	experimental	396	1	1	orientation	0.650000	1	0	0	present	1	477	80.001
cac2	Crossover_4	1.0-rc12	20101022.102424	experimental	397	1	8	orientation	0.650000	1	0	0	present	1	645	80.011
cac2	Crossover_4	1.0-rc12	20101022.102427	experimental	398	0	1	orientation	0.650000	1	0	0	absent	1	529	80.007
cac2	Crossover_4	1.0-rc12	20101022.102431	experimental	399	0	2	2v5	0.100000	1	0	0	absent	1	529	80.000
cac2	Crossover_4	1.0-rc12	20101022.102435	experimental	400	1	1	2v5	0.100000	1	0	0	present	1	468	80.008
cac2	Crossover_4	1.0-rc12	20101108.143905	practice	1	0	8	2v5	0.100000	1	0	0	absent	1	807	80.002
cac2	Crossover_4	1.0-rc12	20101108.143909	practice	2	1	4	2v5	0.100000	1	0	0	present	1	559	80.005
cac2	Crossover_4	1.0-rc12	20101108.143912	practice	3	1	4	orientation	0.650000	1	0	0	present	1	683	80.009
cac2	Crossover_4	1.0-rc12	20101108.143916	practice	4	0	2	2v5	0.100000	1	0	0	present	0	921	80.007
cac2	Crossover_4	1.0-rc12	20101108.143920	practice	5	1	8	2v5	0.100000	1	0	0	present	1	1042	80.008
cac2	Crossover_4	1.0-rc12	20101108.143925	practice	6	1	8	2v5	0.100000	1	0	0	absent	0	1090	80.004
cac2	Crossover_4	1.0-rc12	20101108.143929	practice	7	1	1	orientation	0.650000	1	0	0	present	1	844	80.009
cac2	Crossover_4	1.0-rc12	20101108.143933	practice	8	1	8	orientation	0.650000	1	0	0	present	1	845	79.999
cac2	Crossover_4	1.0-rc12	20101108.143937	practice	9	1	2	orientation	0.650000	1	0	0	present	1	671	80.016
cac2	Crossover_4	1.0-rc12	20101108.143941	practice	10	0	1	2v5	0.100000	1	0	0	absent	1	1046	80.005
cac2	Crossover_4	1.0-rc12	20101108.143945	practice	11	0	4	2v5	0.100000	1	0	0	absent	1	1104	80.003
cac2	Crossover_4	1.0-rc12	20101108.143949	practice	12	0	4	orientation	0.650000	1	0	0	absent	1	639	80.000
cac2	Crossover_4	1.0-rc12	20101108.143953	practice	13	0	4	2v5	0.100000	1	0	0	absent	1	827	80.000
cac2	Crossover_4	1.0-rc12	20101108.143957	practice	14	1	8	2v5	0.100000	1	0	0	present	1	879	80.005
cac2	Crossover_4	1.0-rc12	20101108.144001	practice	15	0	8	orientation	0.650000	1	0	0	absent	1	718	80.007
cac2	Crossover_4	1.0-rc12	20101108.144005	practice	16	0	4	orientation	0.650000	1	0	0	absent	1	591	80.010
cac2	Crossover_4	1.0-rc12	20101108.144008	practice	17	0	8	2v5	0.100000	1	0	0	absent	1	647	80.006
cac2	Crossover_4	1.0-rc12	20101108.144012	practice	18	0	1	orientation	0.650000	1	0	0	absent	1	811	80.000
cac2	Crossover_4	1.0-rc12	20101108.144016	practice	19	1	8	2v5	0.100000	1	0	0	present	1	1101	80.007
cac2	Crossover_4	1.0-rc12	20101108.144020	practice	20	1	2	2v5	0.100000	1	0	0	present	1	853	80.015
cac2	Crossover_4	1.0-rc12	20101108.144024	practice	21	0	8	2v5	0.100000	1	0	0	absent	1	805	79.997
cac2	Crossover_4	1.0-rc12	20101108.144028	practice	22	1	4	2v5	0.100000	1	0	0	present	1	618	79.997
cac2	Crossover_4	1.0-rc12	20101108.144032	practice	23	0	2	2v5	0.100000	1	0	0	absent	1	576	80.010
cac2	Crossover_4	1.0-rc12	20101108.144036	practice	24	1	2	orientation	0.650000	1	0	0	present	1	565	80.008
cac2	Crossover_4	1.0-rc12	20101108.144040	practice	25	1	4	2v5	0.100000	1	0	0	present	1	667	79.983
cac2	Crossover_4	1.0-rc12	20101108.144044	practice	26	1	2	2v5	0.100000	1	0	0	present	1	701	80.005
cac2	Crossover_4	1.0-rc12	20101108.144047	practice	27	1	4	orientation	0.650000	1	0	0	present	1	803	80.017
cac2	Crossover_4	1.0-rc12	20101108.144051	practice	28	1	4	orientation	0.650000	1	0	0	present	1	578	80.001
cac2	Crossover_4	1.0-rc12	20101108.144055	practice	29	0	4	2v5	0.100000	1	0	0	absent	1	908	80.007
cac2	Crossover_4	1.0-rc12	20101108.144059	practice	30	1	1	2v5	0.100000	1	0	0	present	1	502	80.009
cac2	Crossover_4	1.0-rc12	20101108.144103	practice	31	0	1	2v5	0.100000	1	0	0	absent	1	566	80.008
cac2	Crossover_4	1.0-rc12	20101108.144107	practice	32	0	1	2v5	0.100000	1	0	0	absent	1	556	80.016
cac2	Crossover_4	1.0-rc12	20101108.144110	practice	33	1	2	2v5	0.100000	1	0	0	present	1	569	80.016
cac2	Crossover_4	1.0-rc12	20101108.144114	practice	34	1	4	2v5	0.100000	1	0	0	present	1	644	80.018
cac2	Crossover_4	1.0-rc12	20101108.144118	practice	35	0	8	orientation	0.650000	1	0	0	absent	1	953	80.006
cac2	Crossover_4	1.0-rc12	20101108.144122	practice	36	1	1	orientation	0.650000	1	0	0	present	1	525	80.011
cac2	Crossover_4	1.0-rc12	20101108.144126	practice	37	0	1	orientation	0.650000	1	0	0	absent	1	645	80.006
cac2	Crossover_4	1.0-rc12	20101108.144129	practice	38	0	2	2v5	0.100000	1	0	0	present	0	1038	80.005
cac2	Crossover_4	1.0-rc12	20101108.144134	practice	39	1	1	2v5	0.100000	1	0	0	present	1	685	80.002
cac2	Crossover_4	1.0-rc12	20101108.144137	practice	40	0	1	2v5	0.100000	1	0	0	present	0	674	80.012
cac2	Crossover_4	1.0-rc12	20101108.144141	practice	41	1	1	2v5	0.100000	1	0	0	present	1	494	79.996
cac2	Crossover_4	1.0-rc12	20101108.144145	practice	42	1	2	orientation	0.650000	1	0	0	present	1	599	80.003
cac2	Crossover_4	1.0-rc12	20101108.144149	practice	43	1	8	orientation	0.650000	1	0	0	present	1	661	80.004
cac2	Crossover_4	1.0-rc12	20101108.144152	practice	44	0	1	orientation	0.650000	1	0	0	absent	1	869	80.006
cac2	Crossover_4	1.0-rc12	20101108.144156	practice	45	0	8	orientation	0.650000	1	0	0	present	0	811	80.010
cac2	Crossover_4	1.0-rc12	20101108.144200	practice	46	0	8	orientation	0.650000	1	0	0	absent	1	920	80.008
cac2	Crossover_4	1.0-rc12	20101108.144204	practice	47	0	2	orientation	0.650000	1	0	0	absent	1	604	80.007
cac2	Crossover_4	1.0-rc12	20101108.144208	practice	48	1	1	orientation	0.650000	1	0	0	present	1	536	80.011
cac2	Crossover_4	1.0-rc12	20101108.144212	practice	49	1	1	orientation	0.650000	1	0	0	present	1	895	79.999
cac2	Crossover_4	1.0-rc12	20101108.144216	practice	50	1	8	orientation	0.650000	1	0	0	present	1	1179	80.007
cac2	Crossover_4	1.0-rc12	20101108.144220	experimental	1	0	4	2v5	0.100000	1	0	0	absent	1	774	80.006
cac2	Crossover_4	1.0-rc12	20101108.144224	experimental	2	0	8	2v5	0.100000	1	0	0	absent	1	960	80.007
cac2	Crossover_4	1.0-rc12	20101108.144228	experimental	3	1	4	2v5	0.100000	1	0	0	present	1	531	80.002
cac2	Crossover_4	1.0-rc12	20101108.144232	experimental	4	0	8	2v5	0.100000	1	0	0	absent	1	1361	80.000
cac2	Crossover_4	1.0-rc12	20101108.144237	experimental	5	0	2	orientation	0.650000	1	0	0	absent	1	668	80.012
cac2	Crossover_4	1.0-rc12	20101108.144241	experimental	6	1	8	2v5	0.100000	1	0	0	present	1	762	80.009
cac2	Crossover_4	1.0-rc12	20101108.144244	experimental	7	0	1	orientation	0.650000	1	0	0	absent	1	805	80.007
cac2	Crossover_4	1.0-rc12	20101108.144248	experimental	8	0	1	2v5	0.100000	1	0	0	absent	1	611	80.013
cac2	Crossover_4	1.0-rc12	20101108.144252	experimental	9	0	4	orientation	0.650000	1	0	0	absent	1	729	80.007
cac2	Crossover_4	1.0-rc12	20101108.144256	experimental	10	1	8	2v5	0.100000	1	0	0	present	1	587	80.012
cac2	Crossover_4	1.0-rc12	20101108.144300	experimental	11	1	2	orientation	0.650000	1	0	0	present	1	575	80.012
cac2	Crossover_4	1.0-rc12	20101108.144304	experimental	12	0	8	orientation	0.650000	1	0	0	absent	1	593	80.001
cac2	Crossover_4	1.0-rc12	20101108.144307	experimental	13	1	2	orientation	0.650000	1	0	0	present	1	594	80.009
cac2	Crossover_4	1.0-rc12	20101108.144311	experimental	14	1	8	orientation	0.650000	1	0	0	absent	0	627	79.998
cac2	Crossover_4	1.0-rc12	20101108.144315	experimental	15	0	1	2v5	0.100000	1	0	0	absent	1	726	80.011
cac2	Crossover_4	1.0-rc12	20101108.144319	experimental	16	1	2	2v5	0.100000	1	0	0	present	1	744	80.006
cac2	Crossover_4	1.0-rc12	20101108.144323	experimental	17	1	8	2v5	0.100000	1	0	0	present	1	598	80.019
cac2	Crossover_4	1.0-rc12	20101108.144326	experimental	18	1	8	2v5	0.100000	1	0	0	present	1	606	80.016
cac2	Crossover_4	1.0-rc12	20101108.144330	experimental	19	1	2	2v5	0.100000	1	0	0	present	1	526	80.011
cac2	Crossover_4	1.0-rc12	20101108.144334	experimental	20	0	1	2v5	0.100000	1	0	0	absent	1	590	80.016
cac2	Crossover_4	1.0-rc12	20101108.144338	experimental	21	1	8	2v5	0.100000	1	0	0	present	1	670	79.999
cac2	Crossover_4	1.0-rc12	20101108.144342	experimental	22	1	8	orientation	0.650000	1	0	0	present	1	660	79.997
cac2	Crossover_4	1.0-rc12	20101108.144345	experimental	23	1	2	2v5	0.100000	1	0	0	present	1	673	80.006
cac2	Crossover_4	1.0-rc12	20101108.144349	experimental	24	0	2	2v5	0.100000	1	0	0	absent	1	603	79.995
cac2	Crossover_4	1.0-rc12	20101108.144353	experimental	25	0	1	orientation	0.650000	1	0	0	absent	1	661	80.016
cac2	Crossover_4	1.0-rc12	20101108.144357	experimental	26	0	8	2v5	0.100000	1	0	0	absent	1	624	80.005
cac2	Crossover_4	1.0-rc12	20101108.144401	experimental	27	0	1	orientation	0.650000	1	0	0	absent	1	660	80.001
cac2	Crossover_4	1.0-rc12	20101108.144404	experimental	28	0	4	orientation	0.650000	1	0	0	absent	1	821	79.996
cac2	Crossover_4	1.0-rc12	20101108.144408	experimental	29	1	8	orientation	0.650000	1	0	0	present	1	626	79.998
cac2	Crossover_4	1.0-rc12	20101108.144412	experimental	30	0	1	2v5	0.100000	1	0	0	absent	1	678	80.004
cac2	Crossover_4	1.0-rc12	20101108.144416	experimental	31	0	2	2v5	0.100000	1	0	0	absent	1	574	80.005
cac2	Crossover_4	1.0-rc12	20101108.144420	experimental	32	1	4	2v5	0.100000	1	0	0	present	1	791	80.006
cac2	Crossover_4	1.0-rc12	20101108.144424	experimental	33	1	8	orientation	0.650000	1	0	0	present	1	1210	80.040
cac2	Crossover_4	1.0-rc12	20101108.144428	experimental	34	0	1	orientation	0.650000	1	0	0	absent	1	566	80.006
cac2	Crossover_4	1.0-rc12	20101108.144432	experimental	35	0	4	2v5	0.100000	1	0	0	absent	1	1022	80.001
cac2	Crossover_4	1.0-rc12	20101108.144436	experimental	36	1	1	2v5	0.100000	1	0	0	present	1	553	80.015
cac2	Crossover_4	1.0-rc12	20101108.144440	experimental	37	0	8	2v5	0.100000	1	0	0	absent	1	652	80.008
cac2	Crossover_4	1.0-rc12	20101108.144443	experimental	38	1	4	2v5	0.100000	1	0	0	present	1	678	79.999
cac2	Crossover_4	1.0-rc12	20101108.144447	experimental	39	1	1	2v5	0.100000	1	0	0	present	1	451	80.009
cac2	Crossover_4	1.0-rc12	20101108.144451	experimental	40	1	2	2v5	0.100000	1	0	0	present	1	601	80.010
cac2	Crossover_4	1.0-rc12	20101108.144455	experimental	41	0	2	2v5	0.100000	1	0	0	absent	1	871	79.999
cac2	Crossover_4	1.0-rc12	20101108.144459	experimental	42	1	1	2v5	0.100000	1	0	0	present	1	483	80.010
cac2	Crossover_4	1.0-rc12	20101108.144502	experimental	43	0	8	orientation	0.650000	1	0	0	absent	1	562	80.014
cac2	Crossover_4	1.0-rc12	20101108.144506	experimental	44	0	2	orientation	0.650000	1	0	0	absent	1	475	80.017
cac2	Crossover_4	1.0-rc12	20101108.144510	experimental	45	1	2	2v5	0.100000	1	0	0	present	1	791	80.003
cac2	Crossover_4	1.0-rc12	20101108.144514	experimental	46	0	8	orientation	0.650000	1	0	0	absent	1	561	80.015
cac2	Crossover_4	1.0-rc12	20101108.144517	experimental	47	1	1	orientation	0.650000	1	0	0	present	1	590	80.010
cac2	Crossover_4	1.0-rc12	20101108.144521	experimental	48	1	2	orientation	0.650000	1	0	0	present	1	653	80.008
cac2	Crossover_4	1.0-rc12	20101108.144525	experimental	49	0	8	2v5	0.100000	1	0	0	absent	1	780	79.996
cac2	Crossover_4	1.0-rc12	20101108.144529	experimental	50	0	1	orientation	0.650000	1	0	0	absent	1	634	80.004
cac2	Crossover_4	1.0-rc12	20101108.144601	experimental	51	1	1	orientation	0.650000	1	0	0	present	1	549	80.005
cac2	Crossover_4	1.0-rc12	20101108.144605	experimental	52	0	1	orientation	0.650000	1	0	0	present	0	541	80.008
cac2	Crossover_4	1.0-rc12	20101108.144608	experimental	53	0	2	orientation	0.650000	1	0	0	absent	1	619	80.007
cac2	Crossover_4	1.0-rc12	20101108.144612	experimental	54	1	8	2v5	0.100000	1	0	0	present	1	644	80.010
cac2	Crossover_4	1.0-rc12	20101108.144616	experimental	55	0	4	2v5	0.100000	1	0	0	absent	1	671	79.998
cac2	Crossover_4	1.0-rc12	20101108.144620	experimental	56	0	2	orientation	0.650000	1	0	0	absent	1	542	79.998
cac2	Crossover_4	1.0-rc12	20101108.144623	experimental	57	0	1	orientation	0.650000	1	0	0	absent	1	534	80.014
cac2	Crossover_4	1.0-rc12	20101108.144627	experimental	58	0	1	orientation	0.650000	1	0	0	absent	1	485	80.008
cac2	Crossover_4	1.0-rc12	20101108.144631	experimental	59	1	8	2v5	0.100000	1	0	0	present	1	610	80.005
cac2	Crossover_4	1.0-rc12	20101108.144635	experimental	60	0	1	orientation	0.650000	1	0	0	absent	1	633	80.003
cac2	Crossover_4	1.0-rc12	20101108.144639	experimental	61	1	2	2v5	0.100000	1	0	0	present	1	1101	79.945
cac2	Crossover_4	1.0-rc12	20101108.144643	experimental	62	0	1	2v5	0.100000	1	0	0	absent	1	599	80.003
cac2	Crossover_4	1.0-rc12	20101108.144647	experimental	63	1	2	2v5	0.100000	1	0	0	present	1	644	80.017
cac2	Crossover_4	1.0-rc12	20101108.144650	experimental	64	1	1	2v5	0.100000	1	0	0	present	1	604	79.997
cac2	Crossover_4	1.0-rc12	20101108.144654	experimental	65	1	8	2v5	0.100000	1	0	0	absent	0	669	80.004
cac2	Crossover_4	1.0-rc12	20101108.144658	experimental	66	0	8	orientation	0.650000	1	0	0	present	0	747	80.004
cac2	Crossover_4	1.0-rc12	20101108.144702	experimental	67	1	1	2v5	0.100000	1	0	0	present	1	545	80.004
cac2	Crossover_4	1.0-rc12	20101108.144706	experimental	68	1	1	orientation	0.650000	1	0	0	present	1	533	79.999
cac2	Crossover_4	1.0-rc12	20101108.144709	experimental	69	1	1	2v5	0.100000	1	0	0	present	1	635	80.008
cac2	Crossover_4	1.0-rc12	20101108.144713	experimental	70	1	2	2v5	0.100000	1	0	0	present	1	831	80.006
cac2	Crossover_4	1.0-rc12	20101108.144717	experimental	71	0	4	orientation	0.650000	1	0	0	absent	1	515	80.018
cac2	Crossover_4	1.0-rc12	20101108.144721	experimental	72	1	8	2v5	0.100000	1	0	0	present	1	584	80.015
cac2	Crossover_4	1.0-rc12	20101108.144725	experimental	73	1	8	2v5	0.100000	1	0	0	present	1	717	80.018
cac2	Crossover_4	1.0-rc12	20101108.144729	experimental	74	0	4	2v5	0.100000	1	0	0	absent	1	812	80.011
cac2	Crossover_4	1.0-rc12	20101108.144733	experimental	75	0	2	2v5	0.100000	1	0	0	absent	1	717	80.016
cac2	Crossover_4	1.0-rc12	20101108.144737	experimental	76	1	2	orientation	0.650000	1	0	0	present	1	1128	80.002
cac2	Crossover_4	1.0-rc12	20101108.144741	experimental	77	1	4	2v5	0.100000	1	0	0	present	1	590	80.005
cac2	Crossover_4	1.0-rc12	20101108.144745	experimental	78	1	2	orientation	0.650000	1	0	0	present	1	563	80.013
cac2	Crossover_4	1.0-rc12	20101108.144748	experimental	79	0	4	2v5	0.100000	1	0	0	present	0	595	80.008
cac2	Crossover_4	1.0-rc12	20101108.144752	experimental	80	1	2	orientation	0.650000	1	0	0	present	1	680	80.003
cac2	Crossover_4	1.0-rc12	20101108.144756	experimental	81	1	2	2v5	0.100000	1	0	0	present	1	588	80.006
cac2	Crossover_4	1.0-rc12	20101108.144800	experimental	82	1	4	2v5	0.100000	1	0	0	present	1	541	80.010
cac2	Crossover_4	1.0-rc12	20101108.144803	experimental	83	0	8	orientation	0.650000	1	0	0	present	0	1058	80.012
cac2	Crossover_4	1.0-rc12	20101108.144808	experimental	84	1	2	orientation	0.650000	1	0	0	present	1	493	80.005
cac2	Crossover_4	1.0-rc12	20101108.144811	experimental	85	1	4	orientation	0.650000	1	0	0	present	1	592	80.010
cac2	Crossover_4	1.0-rc12	20101108.144815	experimental	86	0	1	2v5	0.100000	1	0	0	absent	1	959	80.009
cac2	Crossover_4	1.0-rc12	20101108.144819	experimental	87	0	8	orientation	0.650000	1	0	0	multi	-2	854	79.997
cac2	Crossover_4	1.0-rc12	20101108.144823	experimental	88	1	2	orientation	0.650000	1	0	0	present	1	611	80.016
cac2	Crossover_4	1.0-rc12	20101108.144827	experimental	89	0	8	orientation	0.650000	1	0	0	absent	1	647	80.009
cac2	Crossover_4	1.0-rc12	20101108.144831	experimental	90	0	4	2v5	0.100000	1	0	0	absent	1	643	80.009
cac2	Crossover_4	1.0-rc12	20101108.144835	experimental	91	0	1	2v5	0.100000	1	0	0	absent	1	487	80.001
cac2	Crossover_4	1.0-rc12	20101108.144838	experimental	92	1	4	2v5	0.100000	1	0	0	present	1	779	80.011
cac2	Crossover_4	1.0-rc12	20101108.144842	experimental	93	0	2	2v5	0.100000	1	0	0	absent	1	831	80.017
cac2	Crossover_4	1.0-rc12	20101108.144846	experimental	94	0	8	2v5	0.100000	1	0	0	absent	1	527	80.005
cac2	Crossover_4	1.0-rc12	20101108.144850	experimental	95	1	2	orientation	0.650000	1	0	0	present	1	579	80.003
cac2	Crossover_4	1.0-rc12	20101108.144854	experimental	96	1	1	2v5	0.100000	1	0	0	present	1	541	80.004
cac2	Crossover_4	1.0-rc12	20101108.144857	experimental	97	0	2	orientation	0.650000	1	0	0	absent	1	1100	80.006
cac2	Crossover_4	1.0-rc12	20101108.144902	experimental	98	0	8	orientation	0.650000	1	0	0	absent	1	727	80.004
cac2	Crossover_4	1.0-rc12	20101108.144906	experimental	99	1	8	orientation	0.650000	1	0	0	present	1	629	80.017
cac2	Crossover_4	1.0-rc12	20101108.144909	experimental	100	1	8	2v5	0.100000	1	0	0	absent	0	853	80.017
cac2	Crossover_4	1.0-rc12	20101108.145050	experimental	101	0	4	orientation	0.650000	1	0	0	absent	1	527	79.994
cac2	Crossover_4	1.0-rc12	20101108.145054	experimental	102	0	4	orientation	0.650000	1	0	0	absent	1	1046	80.004
cac2	Crossover_4	1.0-rc12	20101108.145058	experimental	103	1	8	2v5	0.100000	1	0	0	present	1	709	80.011
cac2	Crossover_4	1.0-rc12	20101108.145102	experimental	104	0	8	orientation	0.650000	1	0	0	absent	1	534	80.009
cac2	Crossover_4	1.0-rc12	20101108.145105	experimental	105	0	1	2v5	0.100000	1	0	0	absent	1	510	79.998
cac2	Crossover_4	1.0-rc12	20101108.145109	experimental	106	0	1	2v5	0.100000	1	0	0	absent	1	457	80.008
cac2	Crossover_4	1.0-rc12	20101108.145112	experimental	107	0	1	orientation	0.650000	1	0	0	absent	1	562	80.013
cac2	Crossover_4	1.0-rc12	20101108.145116	experimental	108	0	2	orientation	0.650000	1	0	0	absent	1	483	80.004
cac2	Crossover_4	1.0-rc12	20101108.145120	experimental	109	0	4	2v5	0.100000	1	0	0	absent	1	516	80.006
cac2	Crossover_4	1.0-rc12	20101108.145123	experimental	110	1	8	2v5	0.100000	1	0	0	present	1	494	80.013
cac2	Crossover_4	1.0-rc12	20101108.145127	experimental	111	0	4	orientation	0.650000	1	0	0	absent	1	449	80.017
cac2	Crossover_4	1.0-rc12	20101108.145131	experimental	112	0	4	2v5	0.100000	1	0	0	present	0	534	80.003
cac2	Crossover_4	1.0-rc12	20101108.145134	experimental	113	0	4	2v5	0.100000	1	0	0	absent	1	561	80.012
cac2	Crossover_4	1.0-rc12	20101108.145138	experimental	114	1	2	orientation	0.650000	1	0	0	absent	0	586	79.998
cac2	Crossover_4	1.0-rc12	20101108.145142	experimental	115	0	2	2v5	0.100000	1	0	0	absent	1	558	80.009
cac2	Crossover_4	1.0-rc12	20101108.145146	experimental	116	1	1	orientation	0.650000	1	0	0	present	1	591	80.003
cac2	Crossover_4	1.0-rc12	20101108.145149	experimental	117	1	1	orientation	0.650000	1	0	0	present	1	659	80.007
cac2	Crossover_4	1.0-rc12	20101108.145153	experimental	118	1	1	2v5	0.100000	1	0	0	present	1	767	80.018
cac2	Crossover_4	1.0-rc12	20101108.145157	experimental	119	0	1	orientation	0.650000	1	0	0	absent	1	708	80.008
cac2	Crossover_4	1.0-rc12	20101108.145201	experimental	120	0	2	orientation	0.650000	1	0	0	absent	1	483	80.006
cac2	Crossover_4	1.0-rc12	20101108.145205	experimental	121	0	2	2v5	0.100000	1	0	0	present	0	725	80.003
cac2	Crossover_4	1.0-rc12	20101108.145208	experimental	122	1	2	orientation	0.650000	1	0	0	present	1	543	79.998
cac2	Crossover_4	1.0-rc12	20101108.145212	experimental	123	0	8	2v5	0.100000	1	0	0	absent	1	500	80.011
cac2	Crossover_4	1.0-rc12	20101108.145216	experimental	124	0	4	2v5	0.100000	1	0	0	absent	1	723	80.001
cac2	Crossover_4	1.0-rc12	20101108.145220	experimental	125	0	8	orientation	0.650000	1	0	0	absent	1	504	80.009
cac2	Crossover_4	1.0-rc12	20101108.145223	experimental	126	1	8	orientation	0.650000	1	0	0	present	1	534	80.012
cac2	Crossover_4	1.0-rc12	20101108.145227	experimental	127	0	4	2v5	0.100000	1	0	0	absent	1	533	80.008
cac2	Crossover_4	1.0-rc12	20101108.145231	experimental	128	1	8	orientation	0.650000	1	0	0	present	1	544	80.013
cac2	Crossover_4	1.0-rc12	20101108.145234	experimental	129	1	4	2v5	0.100000	1	0	0	present	1	559	79.997
cac2	Crossover_4	1.0-rc12	20101108.145238	experimental	130	0	1	2v5	0.100000	1	0	0	absent	1	604	79.995
cac2	Crossover_4	1.0-rc12	20101108.145242	experimental	131	0	2	orientation	0.650000	1	0	0	absent	1	550	80.001
cac2	Crossover_4	1.0-rc12	20101108.145246	experimental	132	1	4	orientation	0.650000	1	0	0	present	1	704	80.016
cac2	Crossover_4	1.0-rc12	20101108.145249	experimental	133	0	2	orientation	0.650000	1	0	0	absent	1	777	80.000
cac2	Crossover_4	1.0-rc12	20101108.145253	experimental	134	0	8	orientation	0.650000	1	0	0	absent	1	624	80.005
cac2	Crossover_4	1.0-rc12	20101108.145257	experimental	135	1	8	orientation	0.650000	1	0	0	present	1	677	80.014
cac2	Crossover_4	1.0-rc12	20101108.145301	experimental	136	1	4	orientation	0.650000	1	0	0	absent	0	603	80.001
cac2	Crossover_4	1.0-rc12	20101108.145305	experimental	137	1	8	orientation	0.650000	1	0	0	present	1	518	80.012
cac2	Crossover_4	1.0-rc12	20101108.145309	experimental	138	1	2	2v5	0.100000	1	0	0	present	1	895	80.013
cac2	Crossover_4	1.0-rc12	20101108.145313	experimental	139	0	2	2v5	0.100000	1	0	0	absent	1	745	80.013
cac2	Crossover_4	1.0-rc12	20101108.145316	experimental	140	0	2	orientation	0.650000	1	0	0	absent	1	627	80.013
cac2	Crossover_4	1.0-rc12	20101108.145320	experimental	141	1	4	orientation	0.650000	1	0	0	present	1	561	80.001
cac2	Crossover_4	1.0-rc12	20101108.145324	experimental	142	1	1	orientation	0.650000	1	0	0	present	1	476	80.014
cac2	Crossover_4	1.0-rc12	20101108.145328	experimental	143	0	1	2v5	0.100000	1	0	0	absent	1	591	80.011
cac2	Crossover_4	1.0-rc12	20101108.145331	experimental	144	0	4	2v5	0.100000	1	0	0	absent	1	1086	80.017
cac2	Crossover_4	1.0-rc12	20101108.145336	experimental	145	1	4	2v5	0.100000	1	0	0	present	1	772	80.010
cac2	Crossover_4	1.0-rc12	20101108.145340	experimental	146	1	8	orientation	0.650000	1	0	0	present	1	592	80.013
cac2	Crossover_4	1.0-rc12	20101108.145343	experimental	147	1	2	2v5	0.100000	1	0	0	present	1	713	80.003
cac2	Crossover_4	1.0-rc12	20101108.145347	experimental	148	0	8	2v5	0.100000	1	0	0	absent	1	509	79.992
cac2	Crossover_4	1.0-rc12	20101108.145351	experimental	149	1	2	orientation	0.650000	1	0	0	absent	0	550	80.001
cac2	Crossover_4	1.0-rc12	20101108.145355	experimental	150	1	4	orientation	0.650000	1	0	0	present	1	596	80.016
cac2	Crossover_4	1.0-rc12	20101108.145438	experimental	151	1	4	2v5	0.100000	1	0	0	present	1	575	80.008
cac2	Crossover_4	1.0-rc12	20101108.145442	experimental	152	1	4	orientation	0.650000	1	0	0	absent	0	484	79.997
cac2	Crossover_4	1.0-rc12	20101108.145445	experimental	153	1	8	2v5	0.100000	1	0	0	present	1	553	80.004
cac2	Crossover_4	1.0-rc12	20101108.145449	experimental	154	0	1	2v5	0.100000	1	0	0	absent	1	425	80.013
cac2	Crossover_4	1.0-rc12	20101108.145452	experimental	155	1	4	2v5	0.100000	1	0	0	present	1	559	80.016
cac2	Crossover_4	1.0-rc12	20101108.145456	experimental	156	0	4	2v5	0.100000	1	0	0	absent	1	1635	80.004
cac2	Crossover_4	1.0-rc12	20101108.145501	experimental	157	1	2	2v5	0.100000	1	0	0	present	1	478	80.004
cac2	Crossover_4	1.0-rc12	20101108.145505	experimental	158	1	1	orientation	0.650000	1	0	0	present	1	885	80.001
cac2	Crossover_4	1.0-rc12	20101108.145509	experimental	159	1	2	orientation	0.650000	1	0	0	present	1	554	79.994
cac2	Crossover_4	1.0-rc12	20101108.145512	experimental	160	0	1	orientation	0.650000	1	0	0	absent	1	567	80.000
cac2	Crossover_4	1.0-rc12	20101108.145516	experimental	161	0	2	2v5	0.100000	1	0	0	absent	1	785	80.009
cac2	Crossover_4	1.0-rc12	20101108.145520	experimental	162	0	8	orientation	0.650000	1	0	0	absent	1	728	80.008
cac2	Crossover_4	1.0-rc12	20101108.145524	experimental	163	1	8	2v5	0.100000	1	0	0	present	1	541	80.010
cac2	Crossover_4	1.0-rc12	20101108.145528	experimental	164	0	4	orientation	0.650000	1	0	0	absent	1	449	80.012
cac2	Crossover_4	1.0-rc12	20101108.145531	experimental	165	1	1	orientation	0.650000	1	0	0	present	1	520	80.014
cac2	Crossover_4	1.0-rc12	20101108.145535	experimental	166	0	4	2v5	0.100000	1	0	0	absent	1	557	79.996
cac2	Crossover_4	1.0-rc12	20101108.145539	experimental	167	0	8	2v5	0.100000	1	0	0	absent	1	500	80.009
cac2	Crossover_4	1.0-rc12	20101108.145542	experimental	168	0	2	2v5	0.100000	1	0	0	absent	1	538	80.003
cac2	Crossover_4	1.0-rc12	20101108.145546	experimental	169	0	2	2v5	0.100000	1	0	0	absent	1	498	79.996
cac2	Crossover_4	1.0-rc12	20101108.145550	experimental	170	0	4	orientation	0.650000	1	0	0	absent	1	583	80.002
cac2	Crossover_4	1.0-rc12	20101108.145553	experimental	171	1	4	orientation	0.650000	1	0	0	present	1	543	80.007
cac2	Crossover_4	1.0-rc12	20101108.145557	experimental	172	0	1	2v5	0.100000	1	0	0	absent	1	886	80.017
cac2	Crossover_4	1.0-rc12	20101108.145601	experimental	173	0	4	orientation	0.650000	1	0	0	absent	1	1203	79.995
cac2	Crossover_4	1.0-rc12	20101108.145606	experimental	174	0	2	orientation	0.650000	1	0	0	absent	1	607	80.002
cac2	Crossover_4	1.0-rc12	20101108.145609	experimental	175	1	4	2v5	0.100000	1	0	0	present	1	542	80.002
cac2	Crossover_4	1.0-rc12	20101108.145613	experimental	176	0	2	2v5	0.100000	1	0	0	absent	1	587	79.994
cac2	Crossover_4	1.0-rc12	20101108.145617	experimental	177	1	4	orientation	0.650000	1	0	0	present	1	524	80.008
cac2	Crossover_4	1.0-rc12	20101108.145620	experimental	178	0	2	orientation	0.650000	1	0	0	absent	1	537	80.005
cac2	Crossover_4	1.0-rc12	20101108.145624	experimental	179	0	1	orientation	0.650000	1	0	0	absent	1	703	79.998
cac2	Crossover_4	1.0-rc12	20101108.145628	experimental	180	1	1	2v5	0.100000	1	0	0	present	1	642	80.000
cac2	Crossover_4	1.0-rc12	20101108.145632	experimental	181	1	1	orientation	0.650000	1	0	0	present	1	493	80.011
cac2	Crossover_4	1.0-rc12	20101108.145635	experimental	182	0	2	orientation	0.650000	1	0	0	absent	1	742	80.008
cac2	Crossover_4	1.0-rc12	20101108.145639	experimental	183	0	1	orientation	0.650000	1	0	0	absent	1	442	80.003
cac2	Crossover_4	1.0-rc12	20101108.145643	experimental	184	0	1	2v5	0.100000	1	0	0	absent	1	652	80.005
cac2	Crossover_4	1.0-rc12	20101108.145647	experimental	185	0	4	2v5	0.100000	1	0	0	absent	1	683	80.006
cac2	Crossover_4	1.0-rc12	20101108.145650	experimental	186	0	8	orientation	0.650000	1	0	0	absent	1	661	80.006
cac2	Crossover_4	1.0-rc12	20101108.145654	experimental	187	0	4	2v5	0.100000	1	0	0	absent	1	621	80.007
cac2	Crossover_4	1.0-rc12	20101108.145658	experimental	188	1	4	2v5	0.100000	1	0	0	absent	0	516	80.011
cac2	Crossover_4	1.0-rc12	20101108.145702	experimental	189	1	2	2v5	0.100000	1	0	0	present	1	502	80.014
cac2	Crossover_4	1.0-rc12	20101108.145705	experimental	190	0	4	orientation	0.650000	1	0	0	absent	1	638	80.005
cac2	Crossover_4	1.0-rc12	20101108.145709	experimental	191	0	2	orientation	0.650000	1	0	0	present	0	593	80.007
cac2	Crossover_4	1.0-rc12	20101108.145713	experimental	192	0	1	orientation	0.650000	1	0	0	absent	1	528	79.996
cac2	Crossover_4	1.0-rc12	20101108.145717	experimental	193	1	8	2v5	0.100000	1	0	0	present	1	544	80.011
cac2	Crossover_4	1.0-rc12	20101108.145720	experimental	194	1	2	orientation	0.650000	1	0	0	present	1	552	79.997
cac2	Crossover_4	1.0-rc12	20101108.145724	experimental	195	1	4	2v5	0.100000	1	0	0	present	1	640	80.007
cac2	Crossover_4	1.0-rc12	20101108.145728	experimental	196	1	8	orientation	0.650000	1	0	0	present	1	636	80.010
cac2	Crossover_4	1.0-rc12	20101108.145732	experimental	197	1	4	orientation	0.650000	1	0	0	absent	0	677	80.011
cac2	Crossover_4	1.0-rc12	20101108.145735	experimental	198	1	8	orientation	0.650000	1	0	0	present	1	1072	80.007
cac2	Crossover_4	1.0-rc12	20101108.145740	experimental	199	1	4	orientation	0.650000	1	0	0	present	1	592	80.004
cac2	Crossover_4	1.0-rc12	20101108.145743	experimental	200	1	2	2v5	0.100000	1	0	0	present	1	495	80.008
cac2	Crossover_4	1.0-rc12	20101108.145832	experimental	201	1	1	orientation	0.650000	1	0	0	present	1	557	80.014
cac2	Crossover_4	1.0-rc12	20101108.145836	experimental	202	0	8	orientation	0.650000	1	0	0	absent	1	1024	80.005
cac2	Crossover_4	1.0-rc12	20101108.145840	experimental	203	0	8	2v5	0.100000	1	0	0	absent	1	751	80.000
cac2	Crossover_4	1.0-rc12	20101108.145844	experimental	204	1	4	orientation	0.650000	1	0	0	present	1	733	80.000
cac2	Crossover_4	1.0-rc12	20101108.145848	experimental	205	0	4	orientation	0.650000	1	0	0	absent	1	561	80.004
cac2	Crossover_4	1.0-rc12	20101108.145851	experimental	206	1	2	2v5	0.100000	1	0	0	present	1	580	80.006
cac2	Crossover_4	1.0-rc12	20101108.145855	experimental	207	1	1	2v5	0.100000	1	0	0	present	1	710	80.007
cac2	Crossover_4	1.0-rc12	20101108.145859	experimental	208	0	1	orientation	0.650000	1	0	0	absent	1	403	80.012
cac2	Crossover_4	1.0-rc12	20101108.145903	experimental	209	1	2	2v5	0.100000	1	0	0	present	1	563	80.002
cac2	Crossover_4	1.0-rc12	20101108.145906	experimental	210	0	8	orientation	0.650000	1	0	0	absent	1	535	80.009
cac2	Crossover_4	1.0-rc12	20101108.145910	experimental	211	0	1	2v5	0.100000	1	0	0	absent	1	517	80.009
cac2	Crossover_4	1.0-rc12	20101108.145914	experimental	212	0	8	2v5	0.100000	1	0	0	absent	1	750	79.999
cac2	Crossover_4	1.0-rc12	20101108.145918	experimental	213	0	2	2v5	0.100000	1	0	0	absent	1	480	80.039
cac2	Crossover_4	1.0-rc12	20101108.145921	experimental	214	0	2	2v5	0.100000	1	0	0	absent	1	645	80.017
cac2	Crossover_4	1.0-rc12	20101108.145925	experimental	215	1	2	2v5	0.100000	1	0	0	present	1	624	80.001
cac2	Crossover_4	1.0-rc12	20101108.145929	experimental	216	0	8	2v5	0.100000	1	0	0	absent	1	609	80.012
cac2	Crossover_4	1.0-rc12	20101108.145933	experimental	217	1	1	orientation	0.650000	1	0	0	present	1	1277	80.003
cac2	Crossover_4	1.0-rc12	20101108.145937	experimental	218	0	1	orientation	0.650000	1	0	0	absent	1	475	80.011
cac2	Crossover_4	1.0-rc12	20101108.145941	experimental	219	0	4	orientation	0.650000	1	0	0	absent	1	524	80.013
cac2	Crossover_4	1.0-rc12	20101108.145944	experimental	220	1	2	orientation	0.650000	1	0	0	absent	0	460	80.000
cac2	Crossover_4	1.0-rc12	20101108.145948	experimental	221	1	8	orientation	0.650000	1	0	0	present	1	546	80.007
cac2	Crossover_4	1.0-rc12	20101108.145952	experimental	222	0	2	2v5	0.100000	1	0	0	absent	1	550	79.999
cac2	Crossover_4	1.0-rc12	20101108.145955	experimental	223	1	1	orientation	0.650000	1	0	0	present	1	708	80.006
cac2	Crossover_4	1.0-rc12	20101108.145959	experimental	224	1	2	2v5	0.100000	1	0	0	present	1	577	80.013
cac2	Crossover_4	1.0-rc12	20101108.150003	experimental	225	0	4	orientation	0.650000	1	0	0	present	0	1080	80.008
cac2	Crossover_4	1.0-rc12	20101108.150007	experimental	226	1	8	2v5	0.100000	1	0	0	present	1	895	80.003
cac2	Crossover_4	1.0-rc12	20101108.150011	experimental	227	0	4	2v5	0.100000	1	0	0	absent	1	977	80.004
cac2	Crossover_4	1.0-rc12	20101108.150016	experimental	228	1	8	orientation	0.650000	1	0	0	present	1	600	79.997
cac2	Crossover_4	1.0-rc12	20101108.150019	experimental	229	1	4	2v5	0.100000	1	0	0	present	1	1089	80.007
cac2	Crossover_4	1.0-rc12	20101108.150024	experimental	230	1	1	2v5	0.100000	1	0	0	present	1	515	80.005
cac2	Crossover_4	1.0-rc12	20101108.150027	experimental	231	1	4	2v5	0.100000	1	0	0	present	1	601	80.003
cac2	Crossover_4	1.0-rc12	20101108.150031	experimental	232	1	8	2v5	0.100000	1	0	0	present	1	591	80.003
cac2	Crossover_4	1.0-rc12	20101108.150035	experimental	233	1	2	orientation	0.650000	1	0	0	present	1	635	80.014
cac2	Crossover_4	1.0-rc12	20101108.150039	experimental	234	0	2	orientation	0.650000	1	0	0	absent	1	568	80.001
cac2	Crossover_4	1.0-rc12	20101108.150042	experimental	235	1	1	orientation	0.650000	1	0	0	present	1	551	79.999
cac2	Crossover_4	1.0-rc12	20101108.150046	experimental	236	0	1	orientation	0.650000	1	0	0	present	0	830	80.007
cac2	Crossover_4	1.0-rc12	20101108.150050	experimental	237	0	8	orientation	0.650000	1	0	0	absent	1	634	80.011
cac2	Crossover_4	1.0-rc12	20101108.150054	experimental	238	1	2	2v5	0.100000	1	0	0	present	1	558	80.016
cac2	Crossover_4	1.0-rc12	20101108.150058	experimental	239	0	1	2v5	0.100000	1	0	0	present	0	845	80.012
cac2	Crossover_4	1.0-rc12	20101108.150102	experimental	240	1	4	2v5	0.100000	1	0	0	present	1	678	80.005
cac2	Crossover_4	1.0-rc12	20101108.150106	experimental	241	1	2	2v5	0.100000	1	0	0	present	1	435	80.002
cac2	Crossover_4	1.0-rc12	20101108.150109	experimental	242	1	4	orientation	0.650000	1	0	0	present	1	555	80.007
cac2	Crossover_4	1.0-rc12	20101108.150113	experimental	243	1	1	orientation	0.650000	1	0	0	present	1	515	80.009
cac2	Crossover_4	1.0-rc12	20101108.150117	experimental	244	0	1	orientation	0.650000	1	0	0	absent	1	967	80.013
cac2	Crossover_4	1.0-rc12	20101108.150121	experimental	245	1	2	2v5	0.100000	1	0	0	present	1	472	80.006
cac2	Crossover_4	1.0-rc12	20101108.150124	experimental	246	1	4	2v5	0.100000	1	0	0	present	1	445	80.002
cac2	Crossover_4	1.0-rc12	20101108.150128	experimental	247	1	4	2v5	0.100000	1	0	0	present	1	475	80.014
cac2	Crossover_4	1.0-rc12	20101108.150131	experimental	248	0	8	orientation	0.650000	1	0	0	absent	1	898	80.004
cac2	Crossover_4	1.0-rc12	20101108.150136	experimental	249	0	1	2v5	0.100000	1	0	0	absent	1	578	79.998
cac2	Crossover_4	1.0-rc12	20101108.150139	experimental	250	0	1	2v5	0.100000	1	0	0	absent	1	477	80.005
cac2	Crossover_4	1.0-rc12	20101108.150305	experimental	251	1	2	orientation	0.650000	1	0	0	present	1	476	80.013
cac2	Crossover_4	1.0-rc12	20101108.150308	experimental	252	0	2	2v5	0.100000	1	0	0	absent	1	710	80.017
cac2	Crossover_4	1.0-rc12	20101108.150312	experimental	253	0	2	2v5	0.100000	1	0	0	absent	1	450	80.005
cac2	Crossover_4	1.0-rc12	20101108.150316	experimental	254	0	8	orientation	0.650000	1	0	0	absent	1	467	80.002
cac2	Crossover_4	1.0-rc12	20101108.150319	experimental	255	0	1	orientation	0.650000	1	0	0	absent	1	461	80.005
cac2	Crossover_4	1.0-rc12	20101108.150323	experimental	256	1	8	2v5	0.100000	1	0	0	present	1	578	80.019
cac2	Crossover_4	1.0-rc12	20101108.150327	experimental	257	0	2	2v5	0.100000	1	0	0	absent	1	490	80.008
cac2	Crossover_4	1.0-rc12	20101108.150330	experimental	258	1	1	2v5	0.100000	1	0	0	present	1	589	80.005
cac2	Crossover_4	1.0-rc12	20101108.150334	experimental	259	0	8	2v5	0.100000	1	0	0	absent	1	562	80.005
cac2	Crossover_4	1.0-rc12	20101108.150338	experimental	260	1	8	orientation	0.650000	1	0	0	absent	0	575	80.003
cac2	Crossover_4	1.0-rc12	20101108.150342	experimental	261	0	1	2v5	0.100000	1	0	0	absent	1	550	79.995
cac2	Crossover_4	1.0-rc12	20101108.150345	experimental	262	1	2	orientation	0.650000	1	0	0	present	1	596	80.004
cac2	Crossover_4	1.0-rc12	20101108.150349	experimental	263	0	8	orientation	0.650000	1	0	0	present	0	788	80.006
cac2	Crossover_4	1.0-rc12	20101108.150353	experimental	264	0	8	orientation	0.650000	1	0	0	absent	1	454	80.000
cac2	Crossover_4	1.0-rc12	20101108.150357	experimental	265	0	8	2v5	0.100000	1	0	0	absent	1	1180	80.014
cac2	Crossover_4	1.0-rc12	20101108.150401	experimental	266	0	4	2v5	0.100000	1	0	0	absent	1	661	79.999
cac2	Crossover_4	1.0-rc12	20101108.150405	experimental	267	1	2	orientation	0.650000	1	0	0	present	1	663	80.012
cac2	Crossover_4	1.0-rc12	20101108.150409	experimental	268	0	2	orientation	0.650000	1	0	0	absent	1	521	80.011
cac2	Crossover_4	1.0-rc12	20101108.150412	experimental	269	1	1	orientation	0.650000	1	0	0	present	1	436	80.010
cac2	Crossover_4	1.0-rc12	20101108.150416	experimental	270	1	4	orientation	0.650000	1	0	0	present	1	692	80.013
cac2	Crossover_4	1.0-rc12	20101108.150420	experimental	271	1	1	orientation	0.650000	1	0	0	present	1	442	80.009
cac2	Crossover_4	1.0-rc12	20101108.150423	experimental	272	0	1	2v5	0.100000	1	0	0	absent	1	1065	79.995
cac2	Crossover_4	1.0-rc12	20101108.150428	experimental	273	1	1	2v5	0.100000	1	0	0	present	1	541	80.020
cac2	Crossover_4	1.0-rc12	20101108.150431	experimental	274	1	8	2v5	0.100000	1	0	0	present	1	544	80.004
cac2	Crossover_4	1.0-rc12	20101108.150435	experimental	275	1	8	2v5	0.100000	1	0	0	present	1	516	80.009
cac2	Crossover_4	1.0-rc12	20101108.150439	experimental	276	0	1	2v5	0.100000	1	0	0	absent	1	517	79.950
cac2	Crossover_4	1.0-rc12	20101108.150442	experimental	277	1	1	2v5	0.100000	1	0	0	present	1	451	80.004
cac2	Crossover_4	1.0-rc12	20101108.150446	experimental	278	1	8	2v5	0.100000	1	0	0	present	1	502	80.009
cac2	Crossover_4	1.0-rc12	20101108.150450	experimental	279	1	1	orientation	0.650000	1	0	0	present	1	524	80.004
cac2	Crossover_4	1.0-rc12	20101108.150453	experimental	280	1	4	2v5	0.100000	1	0	0	present	1	560	80.006
cac2	Crossover_4	1.0-rc12	20101108.150457	experimental	281	0	8	2v5	0.100000	1	0	0	present	0	744	80.004
cac2	Crossover_4	1.0-rc12	20101108.150501	experimental	282	0	2	orientation	0.650000	1	0	0	absent	1	819	80.013
cac2	Crossover_4	1.0-rc12	20101108.150505	experimental	283	1	4	orientation	0.650000	1	0	0	present	1	566	80.008
cac2	Crossover_4	1.0-rc12	20101108.150509	experimental	284	1	4	orientation	0.650000	1	0	0	present	1	531	80.018
cac2	Crossover_4	1.0-rc12	20101108.150512	experimental	285	1	2	orientation	0.650000	1	0	0	present	1	519	80.009
cac2	Crossover_4	1.0-rc12	20101108.150516	experimental	286	1	4	orientation	0.650000	1	0	0	present	1	541	80.004
cac2	Crossover_4	1.0-rc12	20101108.150520	experimental	287	1	8	orientation	0.650000	1	0	0	present	1	533	80.013
cac2	Crossover_4	1.0-rc12	20101108.150523	experimental	288	1	1	2v5	0.100000	1	0	0	present	1	585	80.005
cac2	Crossover_4	1.0-rc12	20101108.150527	experimental	289	0	1	orientation	0.650000	1	0	0	absent	1	746	80.009
cac2	Crossover_4	1.0-rc12	20101108.150531	experimental	290	0	4	orientation	0.650000	1	0	0	present	0	566	80.009
cac2	Crossover_4	1.0-rc12	20101108.150535	experimental	291	0	4	2v5	0.100000	1	0	0	absent	1	659	79.998
cac2	Crossover_4	1.0-rc12	20101108.150539	experimental	292	1	4	2v5	0.100000	1	0	0	present	1	500	80.002
cac2	Crossover_4	1.0-rc12	20101108.150542	experimental	293	1	1	2v5	0.100000	1	0	0	present	1	519	80.015
cac2	Crossover_4	1.0-rc12	20101108.150546	experimental	294	0	2	orientation	0.650000	1	0	0	absent	1	599	79.997
cac2	Crossover_4	1.0-rc12	20101108.150550	experimental	295	1	2	2v5	0.100000	1	0	0	present	1	553	80.016
cac2	Crossover_4	1.0-rc12	20101108.150553	experimental	296	1	4	orientation	0.650000	1	0	0	present	1	594	80.005
cac2	Crossover_4	1.0-rc12	20101108.150557	experimental	297	1	1	orientation	0.650000	1	0	0	present	1	426	80.014
cac2	Crossover_4	1.0-rc12	20101108.150601	experimental	298	0	8	2v5	0.100000	1	0	0	absent	1	559	79.997
cac2	Crossover_4	1.0-rc12	20101108.150604	experimental	299	1	8	orientation	0.650000	1	0	0	present	1	495	79.996
cac2	Crossover_4	1.0-rc12	20101108.150608	experimental	300	0	1	orientation	0.650000	1	0	0	absent	1	584	79.994
cac2	Crossover_4	1.0-rc12	20101108.150621	experimental	301	0	4	orientation	0.650000	1	0	0	present	0	698	80.033
cac2	Crossover_4	1.0-rc12	20101108.150624	experimental	302	0	2	orientation	0.650000	1	0	0	absent	1	523	80.006
cac2	Crossover_4	1.0-rc12	20101108.150628	experimental	303	0	1	orientation	0.650000	1	0	0	absent	1	478	80.006
cac2	Crossover_4	1.0-rc12	20101108.150632	experimental	304	0	4	orientation	0.650000	1	0	0	absent	1	457	80.000
cac2	Crossover_4	1.0-rc12	20101108.150635	experimental	305	0	4	2v5	0.100000	1	0	0	absent	1	521	80.013
cac2	Crossover_4	1.0-rc12	20101108.150639	experimental	306	1	1	orientation	0.650000	1	0	0	present	1	532	80.001
cac2	Crossover_4	1.0-rc12	20101108.150643	experimental	307	0	1	2v5	0.100000	1	0	0	absent	1	525	80.014
cac2	Crossover_4	1.0-rc12	20101108.150646	experimental	308	0	1	orientation	0.650000	1	0	0	absent	1	451	80.010
cac2	Crossover_4	1.0-rc12	20101108.150650	experimental	309	1	4	orientation	0.650000	1	0	0	present	1	568	80.000
cac2	Crossover_4	1.0-rc12	20101108.150654	experimental	310	1	8	orientation	0.650000	1	0	0	present	1	616	80.015
cac2	Crossover_4	1.0-rc12	20101108.150658	experimental	311	1	1	2v5	0.100000	1	0	0	present	1	457	80.015
cac2	Crossover_4	1.0-rc12	20101108.150701	experimental	312	1	4	orientation	0.650000	1	0	0	present	1	686	80.012
cac2	Crossover_4	1.0-rc12	20101108.150705	experimental	313	1	1	2v5	0.100000	1	0	0	absent	0	432	80.016
cac2	Crossover_4	1.0-rc12	20101108.150709	experimental	314	1	1	orientation	0.650000	1	0	0	present	1	638	80.009
cac2	Crossover_4	1.0-rc12	20101108.150712	experimental	315	1	4	orientation	0.650000	1	0	0	present	1	477	80.002
cac2	Crossover_4	1.0-rc12	20101108.150716	experimental	316	1	1	orientation	0.650000	1	0	0	present	1	493	80.005
cac2	Crossover_4	1.0-rc12	20101108.150720	experimental	317	1	2	orientation	0.650000	1	0	0	present	1	458	79.998
cac2	Crossover_4	1.0-rc12	20101108.150723	experimental	318	0	4	orientation	0.650000	1	0	0	present	0	900	80.011
cac2	Crossover_4	1.0-rc12	20101108.150727	experimental	319	0	4	2v5	0.100000	1	0	0	present	0	1077	80.002
cac2	Crossover_4	1.0-rc12	20101108.150732	experimental	320	1	1	2v5	0.100000	1	0	0	present	1	437	80.023
cac2	Crossover_4	1.0-rc12	20101108.150735	experimental	321	1	2	orientation	0.650000	1	0	0	present	1	499	80.000
cac2	Crossover_4	1.0-rc12	20101108.150739	experimental	322	1	1	orientation	0.650000	1	0	0	present	1	498	80.009
cac2	Crossover_4	1.0-rc12	20101108.150742	experimental	323	1	8	orientation	0.650000	1	0	0	present	1	501	80.015
cac2	Crossover_4	1.0-rc12	20101108.150746	experimental	324	1	8	orientation	0.650000	1	0	0	present	1	744	80.012
cac2	Crossover_4	1.0-rc12	20101108.150750	experimental	325	0	2	orientation	0.650000	1	0	0	present	0	946	80.006
cac2	Crossover_4	1.0-rc12	20101108.150754	experimental	326	1	4	2v5	0.100000	1	0	0	present	1	531	80.011
cac2	Crossover_4	1.0-rc12	20101108.150758	experimental	327	0	1	2v5	0.100000	1	0	0	absent	1	903	80.015
cac2	Crossover_4	1.0-rc12	20101108.150802	experimental	328	0	2	orientation	0.650000	1	0	0	absent	1	550	80.008
cac2	Crossover_4	1.0-rc12	20101108.150806	experimental	329	1	4	2v5	0.100000	1	0	0	present	1	468	80.006
cac2	Crossover_4	1.0-rc12	20101108.150809	experimental	330	1	1	2v5	0.100000	1	0	0	present	1	466	80.002
cac2	Crossover_4	1.0-rc12	20101108.150813	experimental	331	0	8	orientation	0.650000	1	0	0	present	0	761	80.000
cac2	Crossover_4	1.0-rc12	20101108.150817	experimental	332	0	2	orientation	0.650000	1	0	0	absent	1	482	80.006
cac2	Crossover_4	1.0-rc12	20101108.150820	experimental	333	0	4	orientation	0.650000	1	0	0	absent	1	579	80.013
cac2	Crossover_4	1.0-rc12	20101108.150824	experimental	334	0	8	2v5	0.100000	1	0	0	absent	1	976	80.000
cac2	Crossover_4	1.0-rc12	20101108.150828	experimental	335	0	8	2v5	0.100000	1	0	0	absent	1	554	80.008
cac2	Crossover_4	1.0-rc12	20101108.150832	experimental	336	1	8	2v5	0.100000	1	0	0	present	1	490	80.003
cac2	Crossover_4	1.0-rc12	20101108.150836	experimental	337	1	1	2v5	0.100000	1	0	0	present	1	508	80.011
cac2	Crossover_4	1.0-rc12	20101108.150839	experimental	338	1	2	2v5	0.100000	1	0	0	present	1	628	80.012
cac2	Crossover_4	1.0-rc12	20101108.150843	experimental	339	0	4	orientation	0.650000	1	0	0	absent	1	592	80.010
cac2	Crossover_4	1.0-rc12	20101108.150847	experimental	340	1	4	orientation	0.650000	1	0	0	present	1	568	80.012
cac2	Crossover_4	1.0-rc12	20101108.150850	experimental	341	0	8	2v5	0.100000	1	0	0	absent	1	1380	79.996
cac2	Crossover_4	1.0-rc12	20101108.150855	experimental	342	1	8	2v5	0.100000	1	0	0	present	1	712	80.007
cac2	Crossover_4	1.0-rc12	20101108.150859	experimental	343	1	1	orientation	0.650000	1	0	0	present	1	467	80.012
cac2	Crossover_4	1.0-rc12	20101108.150902	experimental	344	1	8	orientation	0.650000	1	0	0	present	1	475	80.001
cac2	Crossover_4	1.0-rc12	20101108.150906	experimental	345	0	2	orientation	0.650000	1	0	0	absent	1	759	80.008
cac2	Crossover_4	1.0-rc12	20101108.150910	experimental	346	0	1	2v5	0.100000	1	0	0	absent	1	552	80.019
cac2	Crossover_4	1.0-rc12	20101108.150914	experimental	347	1	2	2v5	0.100000	1	0	0	present	1	517	80.006
cac2	Crossover_4	1.0-rc12	20101108.150917	experimental	348	1	4	orientation	0.650000	1	0	0	present	1	492	79.994
cac2	Crossover_4	1.0-rc12	20101108.150921	experimental	349	0	2	2v5	0.100000	1	0	0	present	0	669	80.005
cac2	Crossover_4	1.0-rc12	20101108.150925	experimental	350	0	1	2v5	0.100000	1	0	0	absent	1	542	80.017
cac2	Crossover_4	1.0-rc12	20101108.151021	experimental	351	0	8	2v5	0.100000	1	0	0	absent	1	729	80.015
cac2	Crossover_4	1.0-rc12	20101108.151025	experimental	352	0	2	2v5	0.100000	1	0	0	absent	1	509	80.003
cac2	Crossover_4	1.0-rc12	20101108.151029	experimental	353	0	2	2v5	0.100000	1	0	0	absent	1	498	80.010
cac2	Crossover_4	1.0-rc12	20101108.151032	experimental	354	1	4	orientation	0.650000	1	0	0	present	1	518	80.015
cac2	Crossover_4	1.0-rc12	20101108.151036	experimental	355	1	1	2v5	0.100000	1	0	0	present	1	458	80.000
cac2	Crossover_4	1.0-rc12	20101108.151040	experimental	356	1	1	2v5	0.100000	1	0	0	present	1	400	80.009
cac2	Crossover_4	1.0-rc12	20101108.151043	experimental	357	0	4	2v5	0.100000	1	0	0	present	0	807	80.008
cac2	Crossover_4	1.0-rc12	20101108.151047	experimental	358	0	4	2v5	0.100000	1	0	0	absent	1	578	80.001
cac2	Crossover_4	1.0-rc12	20101108.151051	experimental	359	0	8	2v5	0.100000	1	0	0	absent	1	567	80.008
cac2	Crossover_4	1.0-rc12	20101108.151054	experimental	360	0	2	2v5	0.100000	1	0	0	absent	1	471	80.001
cac2	Crossover_4	1.0-rc12	20101108.151058	experimental	361	1	8	orientation	0.650000	1	0	0	present	1	636	80.003
cac2	Crossover_4	1.0-rc12	20101108.151102	experimental	362	1	8	orientation	0.650000	1	0	0	present	1	509	80.005
cac2	Crossover_4	1.0-rc12	20101108.151106	experimental	363	1	8	orientation	0.650000	1	0	0	present	1	591	80.001
cac2	Crossover_4	1.0-rc12	20101108.151109	experimental	364	1	4	orientation	0.650000	1	0	0	present	1	529	80.014
cac2	Crossover_4	1.0-rc12	20101108.151113	experimental	365	0	8	orientation	0.650000	1	0	0	present	0	732	80.002
cac2	Crossover_4	1.0-rc12	20101108.151117	experimental	366	1	2	orientation	0.650000	1	0	0	present	1	675	80.006
cac2	Crossover_4	1.0-rc12	20101108.151121	experimental	367	1	8	2v5	0.100000	1	0	0	present	1	615	80.016
cac2	Crossover_4	1.0-rc12	20101108.151124	experimental	368	1	1	2v5	0.100000	1	0	0	present	1	600	80.004
cac2	Crossover_4	1.0-rc12	20101108.151128	experimental	369	1	4	2v5	0.100000	1	0	0	absent	0	711	80.007
cac2	Crossover_4	1.0-rc12	20101108.151132	experimental	370	1	4	orientation	0.650000	1	0	0	present	1	517	79.995
cac2	Crossover_4	1.0-rc12	20101108.151136	experimental	371	0	2	orientation	0.650000	1	0	0	absent	1	687	80.006
cac2	Crossover_4	1.0-rc12	20101108.151140	experimental	372	0	2	2v5	0.100000	1	0	0	present	0	524	80.006
cac2	Crossover_4	1.0-rc12	20101108.151143	experimental	373	0	4	orientation	0.650000	1	0	0	present	0	798	80.011
cac2	Crossover_4	1.0-rc12	20101108.151147	experimental	374	1	1	orientation	0.650000	1	0	0	present	1	486	80.006
cac2	Crossover_4	1.0-rc12	20101108.151151	experimental	375	1	1	2v5	0.100000	1	0	0	absent	0	550	80.007
cac2	Crossover_4	1.0-rc12	20101108.151154	experimental	376	0	8	2v5	0.100000	1	0	0	absent	1	617	80.008
cac2	Crossover_4	1.0-rc12	20101108.151158	experimental	377	1	8	orientation	0.650000	1	0	0	present	1	627	80.007
cac2	Crossover_4	1.0-rc12	20101108.151202	experimental	378	0	8	2v5	0.100000	1	0	0	absent	1	697	80.008
cac2	Crossover_4	1.0-rc12	20101108.151206	experimental	379	0	4	orientation	0.650000	1	0	0	absent	1	591	80.004
cac2	Crossover_4	1.0-rc12	20101108.151210	experimental	380	1	2	orientation	0.650000	1	0	0	present	1	544	80.008
cac2	Crossover_4	1.0-rc12	20101108.151213	experimental	381	0	4	2v5	0.100000	1	0	0	absent	1	596	80.014
cac2	Crossover_4	1.0-rc12	20101108.151217	experimental	382	0	1	orientation	0.650000	1	0	0	absent	1	537	79.999
cac2	Crossover_4	1.0-rc12	20101108.151221	experimental	383	0	8	orientation	0.650000	1	0	0	absent	1	508	80.006
cac2	Crossover_4	1.0-rc12	20101108.151224	experimental	384	0	8	2v5	0.100000	1	0	0	present	0	1120	80.005
cac2	Crossover_4	1.0-rc12	20101108.151229	experimental	385	0	8	2v5	0.100000	1	0	0	absent	1	660	80.008
cac2	Crossover_4	1.0-rc12	20101108.151233	experimental	386	0	8	orientation	0.650000	1	0	0	absent	1	520	80.007
cac2	Crossover_4	1.0-rc12	20101108.151236	experimental	387	1	4	2v5	0.100000	1	0	0	present	1	555	80.006
cac2	Crossover_4	1.0-rc12	20101108.151240	experimental	388	0	2	orientation	0.650000	1	0	0	absent	1	511	80.006
cac2	Crossover_4	1.0-rc12	20101108.151244	experimental	389	1	2	2v5	0.100000	1	0	0	present	1	515	79.998
cac2	Crossover_4	1.0-rc12	20101108.151247	experimental	390	0	4	orientation	0.650000	1	0	0	absent	1	593	80.008
cac2	Crossover_4	1.0-rc12	20101108.151251	experimental	391	0	4	orientation	0.650000	1	0	0	absent	1	559	80.005
cac2	Crossover_4	1.0-rc12	20101108.151255	experimental	392	0	4	2v5	0.100000	1	0	0	present	0	909	80.011
cac2	Crossover_4	1.0-rc12	20101108.151259	experimental	393	0	8	orientation	0.650000	1	0	0	absent	1	616	80.008
cac2	Crossover_4	1.0-rc12	20101108.151303	experimental	394	0	2	2v5	0.100000	1	0	0	absent	1	629	80.019
cac2	Crossover_4	1.0-rc12	20101108.151306	experimental	395	1	2	orientation	0.650000	1	0	0	present	1	519	80.008
cac2	Crossover_4	1.0-rc12	20101108.151310	experimental	396	0	4	orientation	0.650000	1	0	0	absent	1	492	80.007
