Subject	Code	Version	Timestamp	Block	Trial	Target	SetSize	StimSet	Noise	Precue	StairTrack	Reversal	Response	Accuracy	RT	ActualExpDur
EMP4	Crossover_4	1.0-rc12	20100927.123525	practice	1	1	8	orientation	0.700000	1	0	0	present	1	565	80.025
EMP4	Crossover_4	1.0-rc12	20100927.123529	practice	2	1	4	2v5	0.400000	1	0	0	present	1	1125	80.039
EMP4	Crossover_4	1.0-rc12	20100927.123533	practice	3	0	4	2v5	0.400000	1	0	0	absent	1	758	80.028
EMP4	Crossover_4	1.0-rc12	20100927.123537	practice	4	0	2	orientation	0.700000	1	0	0	absent	1	385	80.030
EMP4	Crossover_4	1.0-rc12	20100927.123540	practice	5	0	4	orientation	0.700000	1	0	0	absent	1	592	80.023
EMP4	Crossover_4	1.0-rc12	20100927.123544	practice	6	0	1	2v5	0.400000	1	0	0	absent	1	564	80.024
EMP4	Crossover_4	1.0-rc12	20100927.123547	practice	7	1	1	2v5	0.400000	1	0	0	present	1	412	80.020
EMP4	Crossover_4	1.0-rc12	20100927.123551	practice	8	0	4	2v5	0.400000	1	0	0	absent	1	620	80.035
EMP4	Crossover_4	1.0-rc12	20100927.123554	practice	9	1	4	orientation	0.700000	1	0	0	present	1	454	80.040
EMP4	Crossover_4	1.0-rc12	20100927.123558	practice	10	1	8	orientation	0.700000	1	0	0	present	1	489	80.027
EMP4	Crossover_4	1.0-rc12	20100927.123601	practice	11	1	4	2v5	0.400000	1	0	0	present	1	461	80.025
EMP4	Crossover_4	1.0-rc12	20100927.123605	practice	12	0	2	orientation	0.700000	1	0	0	absent	1	730	80.026
EMP4	Crossover_4	1.0-rc12	20100927.123609	practice	13	1	8	2v5	0.400000	1	0	0	present	1	987	80.040
EMP4	Crossover_4	1.0-rc12	20100927.123613	practice	14	0	8	orientation	0.700000	1	0	0	absent	1	454	80.040
EMP4	Crossover_4	1.0-rc12	20100927.123616	practice	15	0	4	orientation	0.700000	1	0	0	absent	1	918	80.030
EMP4	Crossover_4	1.0-rc12	20100927.123620	practice	16	0	2	2v5	0.400000	1	0	0	absent	1	1076	80.026
EMP4	Crossover_4	1.0-rc12	20100927.123624	practice	17	0	2	2v5	0.400000	1	0	0	absent	1	8863	80.024
EMP4	Crossover_4	1.0-rc12	20100927.123636	practice	18	0	4	orientation	0.700000	1	0	0	present	0	759	80.040
EMP4	Crossover_4	1.0-rc12	20100927.123640	practice	19	1	2	2v5	0.400000	1	0	0	present	1	732	80.028
EMP4	Crossover_4	1.0-rc12	20100927.123644	practice	20	1	4	orientation	0.700000	1	0	0	present	1	509	80.033
EMP4	Crossover_4	1.0-rc12	20100927.123647	practice	21	0	4	orientation	0.700000	1	0	0	present	0	572	80.030
EMP4	Crossover_4	1.0-rc12	20100927.123651	practice	22	1	4	orientation	0.700000	1	0	0	present	1	510	80.026
EMP4	Crossover_4	1.0-rc12	20100927.123654	practice	23	0	1	2v5	0.400000	1	0	0	absent	1	454	80.028
EMP4	Crossover_4	1.0-rc12	20100927.123658	practice	24	0	4	2v5	0.400000	1	0	0	absent	1	440	80.026
EMP4	Crossover_4	1.0-rc12	20100927.123701	practice	25	1	2	2v5	0.400000	1	0	0	present	1	572	80.027
EMP4	Crossover_4	1.0-rc12	20100927.123705	practice	26	1	1	orientation	0.700000	1	0	0	absent	0	669	80.019
EMP4	Crossover_4	1.0-rc12	20100927.123708	practice	27	1	8	orientation	0.700000	1	0	0	present	1	565	80.025
EMP4	Crossover_4	1.0-rc12	20100927.123712	practice	28	0	8	orientation	0.700000	1	0	0	present	0	668	80.025
EMP4	Crossover_4	1.0-rc12	20100927.123716	practice	29	1	1	2v5	0.400000	1	0	0	present	1	433	80.039
EMP4	Crossover_4	1.0-rc12	20100927.123719	practice	30	0	1	orientation	0.700000	1	0	0	absent	1	489	80.025
EMP4	Crossover_4	1.0-rc12	20100927.123723	practice	31	1	1	orientation	0.700000	1	0	0	present	1	447	80.024
EMP4	Crossover_4	1.0-rc12	20100927.123726	practice	32	0	1	orientation	0.700000	1	0	0	absent	1	496	80.030
EMP4	Crossover_4	1.0-rc12	20100927.123730	practice	33	0	1	orientation	0.700000	1	0	0	absent	1	800	80.029
EMP4	Crossover_4	1.0-rc12	20100927.123733	practice	34	1	8	2v5	0.400000	1	0	0	present	1	544	80.033
EMP4	Crossover_4	1.0-rc12	20100927.123737	practice	35	0	8	orientation	0.700000	1	0	0	absent	1	1133	80.029
EMP4	Crossover_4	1.0-rc12	20100927.123741	practice	36	0	1	2v5	0.400000	1	0	0	absent	1	1346	80.032
EMP4	Crossover_4	1.0-rc12	20100927.123746	practice	37	1	2	orientation	0.700000	1	0	0	present	1	468	80.035
EMP4	Crossover_4	1.0-rc12	20100927.123749	practice	38	0	8	2v5	0.400000	1	0	0	absent	1	2115	80.032
EMP4	Crossover_4	1.0-rc12	20100927.123754	practice	39	0	2	2v5	0.400000	1	0	0	absent	1	558	80.019
EMP4	Crossover_4	1.0-rc12	20100927.123758	practice	40	1	1	orientation	0.700000	1	0	0	present	1	426	80.024
EMP4	Crossover_4	1.0-rc12	20100927.123801	practice	41	0	8	2v5	0.400000	1	0	0	absent	1	592	80.026
EMP4	Crossover_4	1.0-rc12	20100927.123805	practice	42	1	4	2v5	0.400000	1	0	0	present	1	482	80.036
EMP4	Crossover_4	1.0-rc12	20100927.123808	practice	43	1	1	2v5	0.400000	1	0	0	present	1	614	80.032
EMP4	Crossover_4	1.0-rc12	20100927.123812	practice	44	0	8	2v5	0.400000	1	0	0	present	0	433	80.022
EMP4	Crossover_4	1.0-rc12	20100927.123815	practice	45	1	2	2v5	0.400000	1	0	0	absent	0	523	80.025
EMP4	Crossover_4	1.0-rc12	20100927.123819	practice	46	0	8	2v5	0.400000	1	0	0	present	0	1050	80.031
EMP4	Crossover_4	1.0-rc12	20100927.123823	practice	47	1	8	2v5	0.400000	1	0	0	present	1	447	80.034
EMP4	Crossover_4	1.0-rc12	20100927.123826	practice	48	1	2	2v5	0.400000	1	0	0	present	1	461	80.035
EMP4	Crossover_4	1.0-rc12	20100927.123830	practice	49	1	2	orientation	0.700000	1	0	0	present	1	793	80.030
EMP4	Crossover_4	1.0-rc12	20100927.123834	practice	50	1	2	orientation	0.700000	1	0	0	present	1	842	80.031
EMP4	Crossover_4	1.0-rc12	20100927.123838	experimental	1	1	4	2v5	0.400000	1	0	0	present	1	648	80.025
EMP4	Crossover_4	1.0-rc12	20100927.123841	experimental	2	1	8	orientation	0.700000	1	0	0	present	1	510	80.027
EMP4	Crossover_4	1.0-rc12	20100927.123845	experimental	3	1	4	orientation	0.700000	1	0	0	present	1	440	80.031
EMP4	Crossover_4	1.0-rc12	20100927.123848	experimental	4	0	1	2v5	0.400000	1	0	0	absent	1	662	80.022
EMP4	Crossover_4	1.0-rc12	20100927.123852	experimental	5	1	2	orientation	0.700000	1	0	0	present	1	426	80.022
EMP4	Crossover_4	1.0-rc12	20100927.123855	experimental	6	0	8	2v5	0.400000	1	0	0	present	0	752	80.031
EMP4	Crossover_4	1.0-rc12	20100927.123859	experimental	7	0	2	orientation	0.700000	1	0	0	absent	1	593	80.023
EMP4	Crossover_4	1.0-rc12	20100927.123903	experimental	8	0	4	orientation	0.700000	1	0	0	present	0	932	80.020
EMP4	Crossover_4	1.0-rc12	20100927.123907	experimental	9	0	8	2v5	0.400000	1	0	0	absent	1	1022	80.027
EMP4	Crossover_4	1.0-rc12	20100927.123911	experimental	10	0	1	2v5	0.400000	1	0	0	absent	1	571	80.028
EMP4	Crossover_4	1.0-rc12	20100927.123914	experimental	11	1	1	2v5	0.400000	1	0	0	present	1	523	80.032
EMP4	Crossover_4	1.0-rc12	20100927.123918	experimental	12	1	2	orientation	0.700000	1	0	0	present	1	433	80.027
EMP4	Crossover_4	1.0-rc12	20100927.123921	experimental	13	1	8	2v5	0.400000	1	0	0	present	1	1916	80.022
EMP4	Crossover_4	1.0-rc12	20100927.123926	experimental	14	0	4	orientation	0.700000	1	0	0	absent	1	578	80.024
EMP4	Crossover_4	1.0-rc12	20100927.123930	experimental	15	0	8	orientation	0.700000	1	0	0	absent	1	745	80.028
EMP4	Crossover_4	1.0-rc12	20100927.123934	experimental	16	1	4	2v5	0.400000	1	0	0	present	1	544	80.027
EMP4	Crossover_4	1.0-rc12	20100927.123937	experimental	17	1	2	2v5	0.400000	1	0	0	present	1	475	80.030
EMP4	Crossover_4	1.0-rc12	20100927.123941	experimental	18	0	4	orientation	0.700000	1	0	0	absent	1	495	80.032
EMP4	Crossover_4	1.0-rc12	20100927.123944	experimental	19	1	1	2v5	0.400000	1	0	0	present	1	502	80.028
EMP4	Crossover_4	1.0-rc12	20100927.123948	experimental	20	0	1	2v5	0.400000	1	0	0	absent	1	558	80.037
EMP4	Crossover_4	1.0-rc12	20100927.123951	experimental	21	0	1	orientation	0.700000	1	0	0	absent	1	696	80.035
EMP4	Crossover_4	1.0-rc12	20100927.123955	experimental	22	1	8	2v5	0.400000	1	0	0	present	1	613	80.031
EMP4	Crossover_4	1.0-rc12	20100927.123959	experimental	23	0	8	2v5	0.400000	1	0	0	absent	1	1576	80.026
EMP4	Crossover_4	1.0-rc12	20100927.124003	experimental	24	1	4	2v5	0.400000	1	0	0	present	1	385	80.035
EMP4	Crossover_4	1.0-rc12	20100927.124007	experimental	25	1	1	orientation	0.700000	1	0	0	absent	0	516	80.040
EMP4	Crossover_4	1.0-rc12	20100927.124010	experimental	26	1	8	orientation	0.700000	1	0	0	present	1	433	80.030
EMP4	Crossover_4	1.0-rc12	20100927.124014	experimental	27	0	1	2v5	0.400000	1	0	0	absent	1	704	80.030
EMP4	Crossover_4	1.0-rc12	20100927.124018	experimental	28	0	4	orientation	0.700000	1	0	0	absent	1	724	80.031
EMP4	Crossover_4	1.0-rc12	20100927.124021	experimental	29	0	4	orientation	0.700000	1	0	0	present	0	668	80.025
EMP4	Crossover_4	1.0-rc12	20100927.124025	experimental	30	0	1	orientation	0.700000	1	0	0	absent	1	447	80.037
EMP4	Crossover_4	1.0-rc12	20100927.124028	experimental	31	0	4	orientation	0.700000	1	0	0	absent	1	626	80.029
EMP4	Crossover_4	1.0-rc12	20100927.124032	experimental	32	1	8	2v5	0.400000	1	0	0	present	1	586	80.027
EMP4	Crossover_4	1.0-rc12	20100927.124036	experimental	33	1	4	orientation	0.700000	1	0	0	present	1	675	80.024
EMP4	Crossover_4	1.0-rc12	20100927.124039	experimental	34	1	1	2v5	0.400000	1	0	0	present	1	606	80.031
EMP4	Crossover_4	1.0-rc12	20100927.124043	experimental	35	1	2	2v5	0.400000	1	0	0	present	1	509	80.024
EMP4	Crossover_4	1.0-rc12	20100927.124047	experimental	36	1	1	orientation	0.700000	1	0	0	present	1	496	80.032
EMP4	Crossover_4	1.0-rc12	20100927.124050	experimental	37	0	1	orientation	0.700000	1	0	0	absent	1	523	80.027
EMP4	Crossover_4	1.0-rc12	20100927.124054	experimental	38	1	4	orientation	0.700000	1	0	0	present	1	461	80.026
EMP4	Crossover_4	1.0-rc12	20100927.124057	experimental	39	0	2	orientation	0.700000	1	0	0	absent	1	683	80.032
EMP4	Crossover_4	1.0-rc12	20100927.124101	experimental	40	0	8	2v5	0.400000	1	0	0	present	0	565	80.030
EMP4	Crossover_4	1.0-rc12	20100927.124104	experimental	41	0	4	2v5	0.400000	1	0	0	absent	1	592	80.030
EMP4	Crossover_4	1.0-rc12	20100927.124108	experimental	42	0	1	2v5	0.400000	1	0	0	absent	1	565	80.029
EMP4	Crossover_4	1.0-rc12	20100927.124112	experimental	43	0	4	orientation	0.700000	1	0	0	absent	1	606	80.028
EMP4	Crossover_4	1.0-rc12	20100927.124115	experimental	44	1	8	orientation	0.700000	1	0	0	present	1	468	80.035
EMP4	Crossover_4	1.0-rc12	20100927.124119	experimental	45	1	4	2v5	0.400000	1	0	0	present	1	1514	80.032
EMP4	Crossover_4	1.0-rc12	20100927.124123	experimental	46	0	4	orientation	0.700000	1	0	0	absent	1	516	80.029
EMP4	Crossover_4	1.0-rc12	20100927.124127	experimental	47	0	2	orientation	0.700000	1	0	0	absent	1	579	80.024
EMP4	Crossover_4	1.0-rc12	20100927.124130	experimental	48	0	1	2v5	0.400000	1	0	0	absent	1	654	80.027
EMP4	Crossover_4	1.0-rc12	20100927.124134	experimental	49	0	8	2v5	0.400000	1	0	0	absent	1	1264	80.031
EMP4	Crossover_4	1.0-rc12	20100927.124138	experimental	50	1	4	2v5	0.400000	1	0	0	present	1	468	80.028
EMP4	Crossover_4	1.0-rc12	20100927.124153	experimental	51	1	4	orientation	0.700000	1	0	0	present	1	468	80.022
EMP4	Crossover_4	1.0-rc12	20100927.124156	experimental	52	0	2	orientation	0.700000	1	0	0	absent	1	406	80.027
EMP4	Crossover_4	1.0-rc12	20100927.124200	experimental	53	0	1	orientation	0.700000	1	0	0	absent	1	1216	80.031
EMP4	Crossover_4	1.0-rc12	20100927.124204	experimental	54	1	1	orientation	0.700000	1	0	0	present	1	482	80.036
EMP4	Crossover_4	1.0-rc12	20100927.124208	experimental	55	1	2	orientation	0.700000	1	0	0	present	1	413	80.036
EMP4	Crossover_4	1.0-rc12	20100927.124211	experimental	56	0	8	orientation	0.700000	1	0	0	absent	1	558	80.031
EMP4	Crossover_4	1.0-rc12	20100927.124215	experimental	57	0	8	2v5	0.400000	1	0	0	present	0	883	80.026
EMP4	Crossover_4	1.0-rc12	20100927.124218	experimental	58	1	2	2v5	0.400000	1	0	0	present	1	420	80.036
EMP4	Crossover_4	1.0-rc12	20100927.124222	experimental	59	0	8	2v5	0.400000	1	0	0	present	0	959	80.021
EMP4	Crossover_4	1.0-rc12	20100927.124226	experimental	60	1	2	orientation	0.700000	1	0	0	present	1	516	80.027
EMP4	Crossover_4	1.0-rc12	20100927.124229	experimental	61	0	2	orientation	0.700000	1	0	0	absent	1	461	80.032
EMP4	Crossover_4	1.0-rc12	20100927.124233	experimental	62	1	4	orientation	0.700000	1	0	0	present	1	599	80.031
EMP4	Crossover_4	1.0-rc12	20100927.124237	experimental	63	1	4	orientation	0.700000	1	0	0	present	1	420	80.025
EMP4	Crossover_4	1.0-rc12	20100927.124240	experimental	64	1	4	orientation	0.700000	1	0	0	present	1	433	80.030
EMP4	Crossover_4	1.0-rc12	20100927.124243	experimental	65	0	2	2v5	0.400000	1	0	0	absent	1	814	80.036
EMP4	Crossover_4	1.0-rc12	20100927.124247	experimental	66	0	1	orientation	0.700000	1	0	0	absent	1	661	80.033
EMP4	Crossover_4	1.0-rc12	20100927.124251	experimental	67	1	4	2v5	0.400000	1	0	0	present	1	461	80.031
EMP4	Crossover_4	1.0-rc12	20100927.124254	experimental	68	0	2	orientation	0.700000	1	0	0	absent	1	960	80.029
EMP4	Crossover_4	1.0-rc12	20100927.124258	experimental	69	0	8	orientation	0.700000	1	0	0	absent	1	801	80.037
EMP4	Crossover_4	1.0-rc12	20100927.124302	experimental	70	1	1	orientation	0.700000	1	0	0	present	1	447	80.019
EMP4	Crossover_4	1.0-rc12	20100927.124306	experimental	71	1	8	orientation	0.700000	1	0	0	present	1	745	80.028
EMP4	Crossover_4	1.0-rc12	20100927.124309	experimental	72	0	1	orientation	0.700000	1	0	0	absent	1	579	80.021
EMP4	Crossover_4	1.0-rc12	20100927.124313	experimental	73	0	4	2v5	0.400000	1	0	0	absent	1	669	80.027
EMP4	Crossover_4	1.0-rc12	20100927.124317	experimental	74	1	1	orientation	0.700000	1	0	0	present	1	461	80.027
EMP4	Crossover_4	1.0-rc12	20100927.124320	experimental	75	0	2	orientation	0.700000	1	0	0	present	0	648	80.027
EMP4	Crossover_4	1.0-rc12	20100927.124324	experimental	76	0	2	2v5	0.400000	1	0	0	absent	1	495	80.022
EMP4	Crossover_4	1.0-rc12	20100927.124327	experimental	77	1	1	orientation	0.700000	1	0	0	present	1	759	80.028
EMP4	Crossover_4	1.0-rc12	20100927.124331	experimental	78	1	2	2v5	0.400000	1	0	0	present	1	1098	80.026
EMP4	Crossover_4	1.0-rc12	20100927.124335	experimental	79	0	1	2v5	0.400000	1	0	0	absent	1	821	80.030
EMP4	Crossover_4	1.0-rc12	20100927.124339	experimental	80	0	2	2v5	0.400000	1	0	0	absent	1	759	80.027
EMP4	Crossover_4	1.0-rc12	20100927.124343	experimental	81	1	4	2v5	0.400000	1	0	0	present	1	689	80.036
EMP4	Crossover_4	1.0-rc12	20100927.124347	experimental	82	1	4	2v5	0.400000	1	0	0	present	1	849	80.028
EMP4	Crossover_4	1.0-rc12	20100927.124350	experimental	83	0	1	2v5	0.400000	1	0	0	absent	1	467	80.033
EMP4	Crossover_4	1.0-rc12	20100927.124354	experimental	84	0	4	2v5	0.400000	1	0	0	absent	1	557	80.034
EMP4	Crossover_4	1.0-rc12	20100927.124358	experimental	85	1	4	orientation	0.700000	1	0	0	present	1	426	80.036
EMP4	Crossover_4	1.0-rc12	20100927.124401	experimental	86	1	2	orientation	0.700000	1	0	0	present	1	613	80.028
EMP4	Crossover_4	1.0-rc12	20100927.124405	experimental	87	1	4	2v5	0.400000	1	0	0	present	1	468	80.024
EMP4	Crossover_4	1.0-rc12	20100927.124408	experimental	88	1	8	2v5	0.400000	1	0	0	absent	0	648	80.020
EMP4	Crossover_4	1.0-rc12	20100927.124412	experimental	89	0	8	orientation	0.700000	1	0	0	absent	1	627	80.025
EMP4	Crossover_4	1.0-rc12	20100927.124415	experimental	90	1	4	2v5	0.400000	1	0	0	present	1	655	80.023
EMP4	Crossover_4	1.0-rc12	20100927.124419	experimental	91	1	4	2v5	0.400000	1	0	0	present	1	925	80.036
EMP4	Crossover_4	1.0-rc12	20100927.124423	experimental	92	0	1	orientation	0.700000	1	0	0	absent	1	613	80.031
EMP4	Crossover_4	1.0-rc12	20100927.124427	experimental	93	0	8	orientation	0.700000	1	0	0	present	0	752	80.032
EMP4	Crossover_4	1.0-rc12	20100927.124430	experimental	94	1	1	orientation	0.700000	1	0	0	present	1	482	80.031
EMP4	Crossover_4	1.0-rc12	20100927.124434	experimental	95	0	1	orientation	0.700000	1	0	0	absent	1	599	80.029
EMP4	Crossover_4	1.0-rc12	20100927.124438	experimental	96	0	4	orientation	0.700000	1	0	0	absent	1	648	80.036
EMP4	Crossover_4	1.0-rc12	20100927.124441	experimental	97	1	8	orientation	0.700000	1	0	0	present	1	558	80.026
EMP4	Crossover_4	1.0-rc12	20100927.124445	experimental	98	0	4	orientation	0.700000	1	0	0	absent	1	1762	80.032
EMP4	Crossover_4	1.0-rc12	20100927.124450	experimental	99	0	8	2v5	0.400000	1	0	0	present	0	509	80.019
EMP4	Crossover_4	1.0-rc12	20100927.124453	experimental	100	1	8	orientation	0.700000	1	0	0	present	1	1132	80.028
EMP4	Crossover_4	1.0-rc12	20100927.124509	experimental	101	1	8	2v5	0.400000	1	0	0	present	1	960	80.030
EMP4	Crossover_4	1.0-rc12	20100927.124513	experimental	102	0	4	2v5	0.400000	1	0	0	present	0	752	80.037
EMP4	Crossover_4	1.0-rc12	20100927.124516	experimental	103	1	1	2v5	0.400000	1	0	0	present	1	503	80.030
EMP4	Crossover_4	1.0-rc12	20100927.124520	experimental	104	1	2	orientation	0.700000	1	0	0	present	1	440	80.035
EMP4	Crossover_4	1.0-rc12	20100927.124523	experimental	105	1	8	2v5	0.400000	1	0	0	present	1	939	80.033
EMP4	Crossover_4	1.0-rc12	20100927.124527	experimental	106	1	2	2v5	0.400000	1	0	0	present	1	523	80.028
EMP4	Crossover_4	1.0-rc12	20100927.124531	experimental	107	0	1	2v5	0.400000	1	0	0	absent	1	523	80.028
EMP4	Crossover_4	1.0-rc12	20100927.124534	experimental	108	0	8	orientation	0.700000	1	0	0	present	0	662	80.019
EMP4	Crossover_4	1.0-rc12	20100927.124538	experimental	109	1	1	orientation	0.700000	1	0	0	present	1	440	80.024
EMP4	Crossover_4	1.0-rc12	20100927.124542	experimental	110	0	4	2v5	0.400000	1	0	0	absent	1	1284	80.028
EMP4	Crossover_4	1.0-rc12	20100927.124546	experimental	111	0	4	2v5	0.400000	1	0	0	absent	1	613	80.025
EMP4	Crossover_4	1.0-rc12	20100927.124550	experimental	112	1	2	orientation	0.700000	1	0	0	present	1	773	80.025
EMP4	Crossover_4	1.0-rc12	20100927.124553	experimental	113	0	1	2v5	0.400000	1	0	0	absent	1	565	80.023
EMP4	Crossover_4	1.0-rc12	20100927.124557	experimental	114	1	1	2v5	0.400000	1	0	0	present	1	454	80.035
EMP4	Crossover_4	1.0-rc12	20100927.124600	experimental	115	0	4	orientation	0.700000	1	0	0	absent	1	468	80.028
EMP4	Crossover_4	1.0-rc12	20100927.124604	experimental	116	1	4	2v5	0.400000	1	0	0	present	1	447	80.025
EMP4	Crossover_4	1.0-rc12	20100927.124607	experimental	117	1	8	2v5	0.400000	1	0	0	present	1	696	80.030
EMP4	Crossover_4	1.0-rc12	20100927.124611	experimental	118	0	8	2v5	0.400000	1	0	0	present	0	544	80.027
EMP4	Crossover_4	1.0-rc12	20100927.124615	experimental	119	0	8	2v5	0.400000	1	0	0	present	0	988	80.026
EMP4	Crossover_4	1.0-rc12	20100927.124619	experimental	120	0	1	orientation	0.700000	1	0	0	present	0	544	80.030
EMP4	Crossover_4	1.0-rc12	20100927.124622	experimental	121	1	1	2v5	0.400000	1	0	0	present	1	537	80.036
EMP4	Crossover_4	1.0-rc12	20100927.124626	experimental	122	0	2	2v5	0.400000	1	0	0	absent	1	669	80.030
EMP4	Crossover_4	1.0-rc12	20100927.124629	experimental	123	0	4	orientation	0.700000	1	0	0	absent	1	821	80.035
EMP4	Crossover_4	1.0-rc12	20100927.124633	experimental	124	0	4	2v5	0.400000	1	0	0	present	0	655	80.027
EMP4	Crossover_4	1.0-rc12	20100927.124637	experimental	125	0	1	2v5	0.400000	1	0	0	absent	1	496	80.026
EMP4	Crossover_4	1.0-rc12	20100927.124640	experimental	126	0	1	orientation	0.700000	1	0	0	absent	1	551	80.026
EMP4	Crossover_4	1.0-rc12	20100927.124644	experimental	127	1	2	orientation	0.700000	1	0	0	present	1	551	80.029
EMP4	Crossover_4	1.0-rc12	20100927.124647	experimental	128	1	8	2v5	0.400000	1	0	0	present	1	800	80.036
EMP4	Crossover_4	1.0-rc12	20100927.124651	experimental	129	1	2	2v5	0.400000	1	0	0	present	1	440	80.035
EMP4	Crossover_4	1.0-rc12	20100927.124655	experimental	130	1	2	2v5	0.400000	1	0	0	present	1	703	80.025
EMP4	Crossover_4	1.0-rc12	20100927.124659	experimental	131	1	2	2v5	0.400000	1	0	0	present	1	440	80.033
EMP4	Crossover_4	1.0-rc12	20100927.124702	experimental	132	0	4	2v5	0.400000	1	0	0	absent	1	724	80.026
EMP4	Crossover_4	1.0-rc12	20100927.124706	experimental	133	1	1	2v5	0.400000	1	0	0	present	1	461	80.032
EMP4	Crossover_4	1.0-rc12	20100927.124709	experimental	134	1	2	2v5	0.400000	1	0	0	present	1	474	80.026
EMP4	Crossover_4	1.0-rc12	20100927.124713	experimental	135	0	8	2v5	0.400000	1	0	0	absent	1	1112	80.019
EMP4	Crossover_4	1.0-rc12	20100927.124717	experimental	136	1	8	2v5	0.400000	1	0	0	present	1	654	80.031
EMP4	Crossover_4	1.0-rc12	20100927.124721	experimental	137	1	1	2v5	0.400000	1	0	0	present	1	447	80.022
EMP4	Crossover_4	1.0-rc12	20100927.124724	experimental	138	0	8	orientation	0.700000	1	0	0	absent	1	745	80.032
EMP4	Crossover_4	1.0-rc12	20100927.124728	experimental	139	1	8	2v5	0.400000	1	0	0	present	1	447	80.032
EMP4	Crossover_4	1.0-rc12	20100927.124731	experimental	140	1	8	2v5	0.400000	1	0	0	present	1	510	80.036
EMP4	Crossover_4	1.0-rc12	20100927.124735	experimental	141	0	2	2v5	0.400000	1	0	0	absent	1	2207	80.031
EMP4	Crossover_4	1.0-rc12	20100927.124740	experimental	142	1	2	orientation	0.700000	1	0	0	present	1	627	80.027
EMP4	Crossover_4	1.0-rc12	20100927.124744	experimental	143	1	4	orientation	0.700000	1	0	0	present	1	469	80.029
EMP4	Crossover_4	1.0-rc12	20100927.124747	experimental	144	1	4	orientation	0.700000	1	0	0	present	1	462	80.034
EMP4	Crossover_4	1.0-rc12	20100927.124751	experimental	145	1	2	2v5	0.400000	1	0	0	present	1	503	80.032
EMP4	Crossover_4	1.0-rc12	20100927.124754	experimental	146	1	4	2v5	0.400000	1	0	0	present	1	448	80.024
EMP4	Crossover_4	1.0-rc12	20100927.124758	experimental	147	1	4	orientation	0.700000	1	0	0	present	1	455	80.018
EMP4	Crossover_4	1.0-rc12	20100927.124801	experimental	148	0	4	2v5	0.400000	1	0	0	absent	1	689	80.039
EMP4	Crossover_4	1.0-rc12	20100927.124805	experimental	149	0	2	2v5	0.400000	1	0	0	absent	1	537	80.028
EMP4	Crossover_4	1.0-rc12	20100927.124808	experimental	150	0	4	2v5	0.400000	1	0	0	absent	1	1321	80.024
EMP4	Crossover_4	1.0-rc12	20100927.124834	experimental	151	1	8	orientation	0.700000	1	0	0	present	1	1113	80.034
EMP4	Crossover_4	1.0-rc12	20100927.124838	experimental	152	0	1	orientation	0.700000	1	0	0	absent	1	489	80.036
EMP4	Crossover_4	1.0-rc12	20100927.124842	experimental	153	1	4	orientation	0.700000	1	0	0	present	1	476	80.029
EMP4	Crossover_4	1.0-rc12	20100927.124845	experimental	154	0	4	2v5	0.400000	1	0	0	present	0	787	80.026
EMP4	Crossover_4	1.0-rc12	20100927.124849	experimental	155	0	2	2v5	0.400000	1	0	0	absent	1	552	80.028
EMP4	Crossover_4	1.0-rc12	20100927.124852	experimental	156	0	2	orientation	0.700000	1	0	0	absent	1	558	80.039
EMP4	Crossover_4	1.0-rc12	20100927.124856	experimental	157	0	8	2v5	0.400000	1	0	0	absent	1	1078	80.029
EMP4	Crossover_4	1.0-rc12	20100927.124900	experimental	158	0	2	orientation	0.700000	1	0	0	absent	1	531	80.024
EMP4	Crossover_4	1.0-rc12	20100927.124904	experimental	159	0	8	orientation	0.700000	1	0	0	absent	1	621	80.018
EMP4	Crossover_4	1.0-rc12	20100927.124907	experimental	160	0	4	orientation	0.700000	1	0	0	absent	1	752	80.037
EMP4	Crossover_4	1.0-rc12	20100927.124911	experimental	161	1	4	orientation	0.700000	1	0	0	present	1	538	80.029
EMP4	Crossover_4	1.0-rc12	20100927.124915	experimental	162	1	2	2v5	0.400000	1	0	0	present	1	489	80.035
EMP4	Crossover_4	1.0-rc12	20100927.124918	experimental	163	1	8	orientation	0.700000	1	0	0	present	1	642	80.019
EMP4	Crossover_4	1.0-rc12	20100927.124922	experimental	164	0	4	2v5	0.400000	1	0	0	absent	1	566	80.029
EMP4	Crossover_4	1.0-rc12	20100927.124925	experimental	165	1	8	2v5	0.400000	1	0	0	present	1	718	80.027
EMP4	Crossover_4	1.0-rc12	20100927.124929	experimental	166	1	8	2v5	0.400000	1	0	0	absent	0	600	80.028
EMP4	Crossover_4	1.0-rc12	20100927.124933	experimental	167	0	2	2v5	0.400000	1	0	0	absent	1	1030	80.032
EMP4	Crossover_4	1.0-rc12	20100927.124937	experimental	168	1	2	2v5	0.400000	1	0	0	present	1	1149	80.035
EMP4	Crossover_4	1.0-rc12	20100927.124941	experimental	169	1	2	2v5	0.400000	1	0	0	present	1	1135	80.038
EMP4	Crossover_4	1.0-rc12	20100927.124945	experimental	170	1	4	orientation	0.700000	1	0	0	present	1	857	80.025
EMP4	Crossover_4	1.0-rc12	20100927.124949	experimental	171	0	4	orientation	0.700000	1	0	0	absent	1	774	80.030
EMP4	Crossover_4	1.0-rc12	20100927.124953	experimental	172	0	8	2v5	0.400000	1	0	0	absent	1	1064	80.036
EMP4	Crossover_4	1.0-rc12	20100927.124957	experimental	173	1	8	orientation	0.700000	1	0	0	present	1	828	80.029
EMP4	Crossover_4	1.0-rc12	20100927.125001	experimental	174	0	8	orientation	0.700000	1	0	0	absent	1	587	80.030
EMP4	Crossover_4	1.0-rc12	20100927.125004	experimental	175	1	8	2v5	0.400000	1	0	0	present	1	1107	80.026
EMP4	Crossover_4	1.0-rc12	20100927.125009	experimental	176	1	1	orientation	0.700000	1	0	0	present	1	489	80.025
EMP4	Crossover_4	1.0-rc12	20100927.125012	experimental	177	1	1	orientation	0.700000	1	0	0	present	1	434	80.027
EMP4	Crossover_4	1.0-rc12	20100927.125016	experimental	178	0	1	2v5	0.400000	1	0	0	absent	1	544	80.036
EMP4	Crossover_4	1.0-rc12	20100927.125019	experimental	179	1	2	2v5	0.400000	1	0	0	present	1	593	80.026
EMP4	Crossover_4	1.0-rc12	20100927.125023	experimental	180	0	2	orientation	0.700000	1	0	0	absent	1	441	80.028
EMP4	Crossover_4	1.0-rc12	20100927.125026	experimental	181	0	2	2v5	0.400000	1	0	0	absent	1	655	80.033
EMP4	Crossover_4	1.0-rc12	20100927.125030	experimental	182	0	8	orientation	0.700000	1	0	0	absent	1	739	80.034
EMP4	Crossover_4	1.0-rc12	20100927.125034	experimental	183	1	2	2v5	0.400000	1	0	0	present	1	440	80.019
EMP4	Crossover_4	1.0-rc12	20100927.125037	experimental	184	1	1	orientation	0.700000	1	0	0	present	1	510	80.039
EMP4	Crossover_4	1.0-rc12	20100927.125041	experimental	185	0	8	2v5	0.400000	1	0	0	absent	1	580	80.021
EMP4	Crossover_4	1.0-rc12	20100927.125044	experimental	186	0	8	2v5	0.400000	1	0	0	present	0	475	80.024
EMP4	Crossover_4	1.0-rc12	20100927.125048	experimental	187	0	8	2v5	0.400000	1	0	0	absent	1	1272	80.038
EMP4	Crossover_4	1.0-rc12	20100927.125052	experimental	188	0	1	2v5	0.400000	1	0	0	absent	1	552	80.023
EMP4	Crossover_4	1.0-rc12	20100927.125056	experimental	189	1	4	orientation	0.700000	1	0	0	present	1	454	80.024
EMP4	Crossover_4	1.0-rc12	20100927.125059	experimental	190	1	2	orientation	0.700000	1	0	0	present	1	1078	80.026
EMP4	Crossover_4	1.0-rc12	20100927.125103	experimental	191	0	2	2v5	0.400000	1	0	0	absent	1	579	80.026
EMP4	Crossover_4	1.0-rc12	20100927.125107	experimental	192	1	1	orientation	0.700000	1	0	0	present	1	434	80.032
EMP4	Crossover_4	1.0-rc12	20100927.125110	experimental	193	1	2	orientation	0.700000	1	0	0	present	1	600	80.032
EMP4	Crossover_4	1.0-rc12	20100927.125114	experimental	194	0	8	2v5	0.400000	1	0	0	absent	1	912	80.026
EMP4	Crossover_4	1.0-rc12	20100927.125118	experimental	195	0	1	orientation	0.700000	1	0	0	absent	1	579	80.024
EMP4	Crossover_4	1.0-rc12	20100927.125121	experimental	196	1	2	orientation	0.700000	1	0	0	present	1	475	80.023
EMP4	Crossover_4	1.0-rc12	20100927.125125	experimental	197	0	4	2v5	0.400000	1	0	0	absent	1	731	80.023
EMP4	Crossover_4	1.0-rc12	20100927.125129	experimental	198	1	1	orientation	0.700000	1	0	0	present	1	725	80.033
EMP4	Crossover_4	1.0-rc12	20100927.125132	experimental	199	0	2	orientation	0.700000	1	0	0	absent	1	510	80.034
EMP4	Crossover_4	1.0-rc12	20100927.125136	experimental	200	1	2	orientation	0.700000	1	0	0	present	1	440	80.022
EMP4	Crossover_4	1.0-rc12	20100927.125209	experimental	201	1	8	orientation	0.700000	1	0	0	present	1	475	80.030
EMP4	Crossover_4	1.0-rc12	20100927.125212	experimental	202	1	8	2v5	0.400000	1	0	0	absent	0	662	80.028
EMP4	Crossover_4	1.0-rc12	20100927.125216	experimental	203	0	8	orientation	0.700000	1	0	0	absent	1	606	80.031
EMP4	Crossover_4	1.0-rc12	20100927.125219	experimental	204	1	4	2v5	0.400000	1	0	0	present	1	503	80.027
EMP4	Crossover_4	1.0-rc12	20100927.125223	experimental	205	1	2	2v5	0.400000	1	0	0	present	1	406	80.035
EMP4	Crossover_4	1.0-rc12	20100927.125226	experimental	206	1	2	orientation	0.700000	1	0	0	present	1	503	80.028
EMP4	Crossover_4	1.0-rc12	20100927.125230	experimental	207	0	2	orientation	0.700000	1	0	0	present	0	655	80.022
EMP4	Crossover_4	1.0-rc12	20100927.125234	experimental	208	1	2	orientation	0.700000	1	0	0	present	1	378	80.025
EMP4	Crossover_4	1.0-rc12	20100927.125237	experimental	209	1	1	2v5	0.400000	1	0	0	present	1	510	80.022
EMP4	Crossover_4	1.0-rc12	20100927.125241	experimental	210	1	2	orientation	0.700000	1	0	0	present	1	475	80.035
EMP4	Crossover_4	1.0-rc12	20100927.125244	experimental	211	0	1	2v5	0.400000	1	0	0	absent	1	523	80.023
EMP4	Crossover_4	1.0-rc12	20100927.125248	experimental	212	0	4	orientation	0.700000	1	0	0	absent	1	566	80.031
EMP4	Crossover_4	1.0-rc12	20100927.125251	experimental	213	1	1	orientation	0.700000	1	0	0	present	1	420	80.038
EMP4	Crossover_4	1.0-rc12	20100927.125255	experimental	214	0	4	orientation	0.700000	1	0	0	absent	1	523	80.037
EMP4	Crossover_4	1.0-rc12	20100927.125258	experimental	215	0	2	2v5	0.400000	1	0	0	absent	1	683	80.026
EMP4	Crossover_4	1.0-rc12	20100927.125302	experimental	216	0	1	orientation	0.700000	1	0	0	present	0	573	80.020
EMP4	Crossover_4	1.0-rc12	20100927.125306	experimental	217	0	8	orientation	0.700000	1	0	0	absent	1	510	80.036
EMP4	Crossover_4	1.0-rc12	20100927.125309	experimental	218	0	2	2v5	0.400000	1	0	0	absent	1	544	80.031
EMP4	Crossover_4	1.0-rc12	20100927.125313	experimental	219	1	1	orientation	0.700000	1	0	0	present	1	475	80.031
EMP4	Crossover_4	1.0-rc12	20100927.125316	experimental	220	0	2	orientation	0.700000	1	0	0	absent	1	649	80.025
EMP4	Crossover_4	1.0-rc12	20100927.125320	experimental	221	0	4	orientation	0.700000	1	0	0	present	0	649	80.027
EMP4	Crossover_4	1.0-rc12	20100927.125323	experimental	222	1	1	2v5	0.400000	1	0	0	present	1	607	80.028
EMP4	Crossover_4	1.0-rc12	20100927.125327	experimental	223	0	1	orientation	0.700000	1	0	0	absent	1	510	80.023
EMP4	Crossover_4	1.0-rc12	20100927.125331	experimental	224	1	2	orientation	0.700000	1	0	0	present	1	440	80.024
EMP4	Crossover_4	1.0-rc12	20100927.125334	experimental	225	0	2	2v5	0.400000	1	0	0	absent	1	1078	80.029
EMP4	Crossover_4	1.0-rc12	20100927.125338	experimental	226	1	8	orientation	0.700000	1	0	0	present	1	406	80.040
EMP4	Crossover_4	1.0-rc12	20100927.125342	experimental	227	1	2	orientation	0.700000	1	0	0	present	1	434	80.024
EMP4	Crossover_4	1.0-rc12	20100927.125345	experimental	228	0	4	2v5	0.400000	1	0	0	absent	1	586	80.027
EMP4	Crossover_4	1.0-rc12	20100927.125349	experimental	229	0	1	2v5	0.400000	1	0	0	absent	1	545	80.030
EMP4	Crossover_4	1.0-rc12	20100927.125352	experimental	230	1	4	orientation	0.700000	1	0	0	absent	0	1051	80.023
EMP4	Crossover_4	1.0-rc12	20100927.125356	experimental	231	1	8	2v5	0.400000	1	0	0	present	1	781	80.031
EMP4	Crossover_4	1.0-rc12	20100927.125400	experimental	232	0	2	orientation	0.700000	1	0	0	present	0	635	80.031
EMP4	Crossover_4	1.0-rc12	20100927.125404	experimental	233	0	2	2v5	0.400000	1	0	0	absent	1	524	80.033
EMP4	Crossover_4	1.0-rc12	20100927.125407	experimental	234	0	2	orientation	0.700000	1	0	0	absent	1	531	80.033
EMP4	Crossover_4	1.0-rc12	20100927.125411	experimental	235	1	8	2v5	0.400000	1	0	0	present	1	1017	80.025
EMP4	Crossover_4	1.0-rc12	20100927.125415	experimental	236	0	1	orientation	0.700000	1	0	0	absent	1	517	80.027
EMP4	Crossover_4	1.0-rc12	20100927.125418	experimental	237	0	8	2v5	0.400000	1	0	0	absent	1	1065	80.028
EMP4	Crossover_4	1.0-rc12	20100927.125423	experimental	238	0	2	2v5	0.400000	1	0	0	absent	1	635	80.021
EMP4	Crossover_4	1.0-rc12	20100927.125426	experimental	239	0	8	orientation	0.700000	1	0	0	present	0	635	80.023
EMP4	Crossover_4	1.0-rc12	20100927.125430	experimental	240	0	8	2v5	0.400000	1	0	0	absent	1	579	80.028
EMP4	Crossover_4	1.0-rc12	20100927.125434	experimental	241	0	2	orientation	0.700000	1	0	0	absent	1	580	80.020
EMP4	Crossover_4	1.0-rc12	20100927.125437	experimental	242	1	4	orientation	0.700000	1	0	0	present	1	531	80.033
EMP4	Crossover_4	1.0-rc12	20100927.125441	experimental	243	0	2	2v5	0.400000	1	0	0	absent	1	863	80.027
EMP4	Crossover_4	1.0-rc12	20100927.125445	experimental	244	0	2	2v5	0.400000	1	0	0	absent	1	586	80.027
EMP4	Crossover_4	1.0-rc12	20100927.125448	experimental	245	0	8	orientation	0.700000	1	0	0	absent	1	871	80.030
EMP4	Crossover_4	1.0-rc12	20100927.125452	experimental	246	1	4	orientation	0.700000	1	0	0	present	1	503	80.037
EMP4	Crossover_4	1.0-rc12	20100927.125456	experimental	247	1	1	2v5	0.400000	1	0	0	present	1	586	80.031
EMP4	Crossover_4	1.0-rc12	20100927.125459	experimental	248	0	2	orientation	0.700000	1	0	0	absent	1	503	80.034
EMP4	Crossover_4	1.0-rc12	20100927.125503	experimental	249	0	8	orientation	0.700000	1	0	0	absent	1	510	80.026
EMP4	Crossover_4	1.0-rc12	20100927.125506	experimental	250	1	8	orientation	0.700000	1	0	0	present	1	503	80.031
EMP4	Crossover_4	1.0-rc12	20100927.125518	experimental	251	0	4	2v5	0.400000	1	0	0	absent	1	836	80.027
EMP4	Crossover_4	1.0-rc12	20100927.125522	experimental	252	0	4	2v5	0.400000	1	0	0	absent	1	483	80.029
EMP4	Crossover_4	1.0-rc12	20100927.125525	experimental	253	1	2	2v5	0.400000	1	0	0	absent	0	461	80.029
EMP4	Crossover_4	1.0-rc12	20100927.125529	experimental	254	1	4	orientation	0.700000	1	0	0	present	1	468	80.031
EMP4	Crossover_4	1.0-rc12	20100927.125532	experimental	255	1	2	orientation	0.700000	1	0	0	present	1	580	80.018
EMP4	Crossover_4	1.0-rc12	20100927.125536	experimental	256	1	2	2v5	0.400000	1	0	0	present	1	447	80.029
EMP4	Crossover_4	1.0-rc12	20100927.125539	experimental	257	1	4	2v5	0.400000	1	0	0	present	1	773	80.021
EMP4	Crossover_4	1.0-rc12	20100927.125543	experimental	258	0	8	2v5	0.400000	1	0	0	absent	1	613	80.028
EMP4	Crossover_4	1.0-rc12	20100927.125546	experimental	259	1	1	2v5	0.400000	1	0	0	present	1	399	80.024
EMP4	Crossover_4	1.0-rc12	20100927.125550	experimental	260	0	4	2v5	0.400000	1	0	0	absent	1	836	80.033
EMP4	Crossover_4	1.0-rc12	20100927.125554	experimental	261	0	8	orientation	0.700000	1	0	0	present	0	641	80.025
EMP4	Crossover_4	1.0-rc12	20100927.125557	experimental	262	0	4	orientation	0.700000	1	0	0	absent	1	586	80.022
EMP4	Crossover_4	1.0-rc12	20100927.125601	experimental	263	0	1	orientation	0.700000	1	0	0	absent	1	496	80.027
EMP4	Crossover_4	1.0-rc12	20100927.125605	experimental	264	1	1	orientation	0.700000	1	0	0	present	1	503	80.030
EMP4	Crossover_4	1.0-rc12	20100927.125608	experimental	265	1	4	2v5	0.400000	1	0	0	present	1	780	80.036
EMP4	Crossover_4	1.0-rc12	20100927.125612	experimental	266	0	2	orientation	0.700000	1	0	0	absent	1	544	80.032
EMP4	Crossover_4	1.0-rc12	20100927.125615	experimental	267	0	2	orientation	0.700000	1	0	0	absent	1	510	80.029
EMP4	Crossover_4	1.0-rc12	20100927.125619	experimental	268	0	1	orientation	0.700000	1	0	0	absent	1	461	80.036
EMP4	Crossover_4	1.0-rc12	20100927.125622	experimental	269	1	4	orientation	0.700000	1	0	0	present	1	447	80.026
EMP4	Crossover_4	1.0-rc12	20100927.125626	experimental	270	0	1	orientation	0.700000	1	0	0	absent	1	462	80.020
EMP4	Crossover_4	1.0-rc12	20100927.125629	experimental	271	0	1	orientation	0.700000	1	0	0	absent	1	530	80.022
EMP4	Crossover_4	1.0-rc12	20100927.125633	experimental	272	1	4	2v5	0.400000	1	0	0	present	1	600	80.025
EMP4	Crossover_4	1.0-rc12	20100927.125637	experimental	273	1	2	2v5	0.400000	1	0	0	present	1	558	80.024
EMP4	Crossover_4	1.0-rc12	20100927.125640	experimental	274	0	8	2v5	0.400000	1	0	0	absent	1	898	80.036
EMP4	Crossover_4	1.0-rc12	20100927.125644	experimental	275	1	8	orientation	0.700000	1	0	0	present	1	482	80.023
EMP4	Crossover_4	1.0-rc12	20100927.125648	experimental	276	0	2	2v5	0.400000	1	0	0	absent	1	531	80.029
EMP4	Crossover_4	1.0-rc12	20100927.125651	experimental	277	1	1	orientation	0.700000	1	0	0	present	1	502	80.036
EMP4	Crossover_4	1.0-rc12	20100927.125655	experimental	278	0	1	2v5	0.400000	1	0	0	absent	1	545	80.024
EMP4	Crossover_4	1.0-rc12	20100927.125658	experimental	279	1	4	orientation	0.700000	1	0	0	present	1	482	80.019
EMP4	Crossover_4	1.0-rc12	20100927.125702	experimental	280	1	2	orientation	0.700000	1	0	0	present	1	906	80.036
EMP4	Crossover_4	1.0-rc12	20100927.125706	experimental	281	1	8	2v5	0.400000	1	0	0	present	1	503	80.037
EMP4	Crossover_4	1.0-rc12	20100927.125709	experimental	282	1	4	2v5	0.400000	1	0	0	absent	0	787	80.033
EMP4	Crossover_4	1.0-rc12	20100927.125713	experimental	283	1	1	2v5	0.400000	1	0	0	present	1	441	80.029
EMP4	Crossover_4	1.0-rc12	20100927.125717	experimental	284	0	2	2v5	0.400000	1	0	0	absent	1	482	80.019
EMP4	Crossover_4	1.0-rc12	20100927.125720	experimental	285	1	1	2v5	0.400000	1	0	0	present	1	593	80.026
EMP4	Crossover_4	1.0-rc12	20100927.125724	experimental	286	0	2	orientation	0.700000	1	0	0	absent	1	462	80.031
EMP4	Crossover_4	1.0-rc12	20100927.125727	experimental	287	1	1	2v5	0.400000	1	0	0	present	1	468	80.032
EMP4	Crossover_4	1.0-rc12	20100927.125731	experimental	288	0	1	2v5	0.400000	1	0	0	absent	1	538	80.028
EMP4	Crossover_4	1.0-rc12	20100927.125734	experimental	289	1	2	2v5	0.400000	1	0	0	present	1	573	80.025
EMP4	Crossover_4	1.0-rc12	20100927.125738	experimental	290	1	8	2v5	0.400000	1	0	0	absent	0	704	80.032
EMP4	Crossover_4	1.0-rc12	20100927.125742	experimental	291	1	1	orientation	0.700000	1	0	0	present	1	434	80.037
EMP4	Crossover_4	1.0-rc12	20100927.125745	experimental	292	0	4	2v5	0.400000	1	0	0	absent	1	628	80.036
EMP4	Crossover_4	1.0-rc12	20100927.125749	experimental	293	1	1	orientation	0.700000	1	0	0	present	1	392	80.029
EMP4	Crossover_4	1.0-rc12	20100927.125752	experimental	294	1	8	2v5	0.400000	1	0	0	present	1	469	80.039
EMP4	Crossover_4	1.0-rc12	20100927.125756	experimental	295	1	8	orientation	0.700000	1	0	0	present	1	468	80.036
EMP4	Crossover_4	1.0-rc12	20100927.125759	experimental	296	0	8	orientation	0.700000	1	0	0	absent	1	524	80.021
EMP4	Crossover_4	1.0-rc12	20100927.125803	experimental	297	0	2	2v5	0.400000	1	0	0	absent	1	558	80.033
EMP4	Crossover_4	1.0-rc12	20100927.125806	experimental	298	1	1	2v5	0.400000	1	0	0	present	1	822	80.035
EMP4	Crossover_4	1.0-rc12	20100927.125810	experimental	299	1	2	orientation	0.700000	1	0	0	present	1	531	80.034
EMP4	Crossover_4	1.0-rc12	20100927.125814	experimental	300	1	1	orientation	0.700000	1	0	0	present	1	580	80.028
EMP4	Crossover_4	1.0-rc12	20100927.125826	experimental	301	0	1	2v5	0.400000	1	0	0	absent	1	537	80.022
EMP4	Crossover_4	1.0-rc12	20100927.125830	experimental	302	0	1	2v5	0.400000	1	0	0	absent	1	510	80.027
EMP4	Crossover_4	1.0-rc12	20100927.125833	experimental	303	0	8	2v5	0.400000	1	0	0	absent	1	1044	80.030
EMP4	Crossover_4	1.0-rc12	20100927.125837	experimental	304	0	8	orientation	0.700000	1	0	0	absent	1	565	80.023
EMP4	Crossover_4	1.0-rc12	20100927.125841	experimental	305	1	1	orientation	0.700000	1	0	0	present	1	407	80.034
EMP4	Crossover_4	1.0-rc12	20100927.125844	experimental	306	1	2	2v5	0.400000	1	0	0	present	1	544	80.032
EMP4	Crossover_4	1.0-rc12	20100927.125848	experimental	307	0	4	orientation	0.700000	1	0	0	absent	1	544	80.031
EMP4	Crossover_4	1.0-rc12	20100927.125851	experimental	308	1	2	orientation	0.700000	1	0	0	present	1	489	80.033
EMP4	Crossover_4	1.0-rc12	20100927.125855	experimental	309	1	1	2v5	0.400000	1	0	0	present	1	551	80.027
EMP4	Crossover_4	1.0-rc12	20100927.125858	experimental	310	0	4	orientation	0.700000	1	0	0	absent	1	545	80.031
EMP4	Crossover_4	1.0-rc12	20100927.125902	experimental	311	1	2	2v5	0.400000	1	0	0	present	1	420	80.029
EMP4	Crossover_4	1.0-rc12	20100927.125905	experimental	312	0	1	orientation	0.700000	1	0	0	absent	1	606	80.021
EMP4	Crossover_4	1.0-rc12	20100927.125909	experimental	313	1	1	orientation	0.700000	1	0	0	present	1	433	80.025
EMP4	Crossover_4	1.0-rc12	20100927.125913	experimental	314	1	8	orientation	0.700000	1	0	0	present	1	509	80.033
EMP4	Crossover_4	1.0-rc12	20100927.125916	experimental	315	0	2	2v5	0.400000	1	0	0	absent	1	551	80.031
EMP4	Crossover_4	1.0-rc12	20100927.125920	experimental	316	1	4	2v5	0.400000	1	0	0	present	1	447	80.029
EMP4	Crossover_4	1.0-rc12	20100927.125923	experimental	317	0	8	orientation	0.700000	1	0	0	absent	1	545	80.031
EMP4	Crossover_4	1.0-rc12	20100927.125927	experimental	318	0	4	2v5	0.400000	1	0	0	present	0	883	80.022
EMP4	Crossover_4	1.0-rc12	20100927.125931	experimental	319	0	2	2v5	0.400000	1	0	0	absent	1	669	80.024
EMP4	Crossover_4	1.0-rc12	20100927.125934	experimental	320	1	8	orientation	0.700000	1	0	0	present	1	481	80.028
EMP4	Crossover_4	1.0-rc12	20100927.125938	experimental	321	0	8	orientation	0.700000	1	0	0	absent	1	565	80.029
EMP4	Crossover_4	1.0-rc12	20100927.125941	experimental	322	0	4	2v5	0.400000	1	0	0	absent	1	655	80.033
EMP4	Crossover_4	1.0-rc12	20100927.125945	experimental	323	0	1	orientation	0.700000	1	0	0	absent	1	593	80.019
EMP4	Crossover_4	1.0-rc12	20100927.125949	experimental	324	0	4	orientation	0.700000	1	0	0	present	0	585	80.030
EMP4	Crossover_4	1.0-rc12	20100927.125952	experimental	325	1	8	orientation	0.700000	1	0	0	present	1	510	80.032
EMP4	Crossover_4	1.0-rc12	20100927.125956	experimental	326	1	1	2v5	0.400000	1	0	0	present	1	468	80.029
EMP4	Crossover_4	1.0-rc12	20100927.125959	experimental	327	0	1	orientation	0.700000	1	0	0	absent	1	807	80.027
EMP4	Crossover_4	1.0-rc12	20100927.130003	experimental	328	0	8	orientation	0.700000	1	0	0	absent	1	572	80.034
EMP4	Crossover_4	1.0-rc12	20100927.130007	experimental	329	0	8	orientation	0.700000	1	0	0	absent	1	613	80.029
EMP4	Crossover_4	1.0-rc12	20100927.130010	experimental	330	1	2	orientation	0.700000	1	0	0	present	1	516	80.026
EMP4	Crossover_4	1.0-rc12	20100927.130014	experimental	331	1	8	2v5	0.400000	1	0	0	present	1	620	80.030
EMP4	Crossover_4	1.0-rc12	20100927.130017	experimental	332	0	4	orientation	0.700000	1	0	0	absent	1	558	80.030
EMP4	Crossover_4	1.0-rc12	20100927.130021	experimental	333	1	4	2v5	0.400000	1	0	0	present	1	648	80.027
EMP4	Crossover_4	1.0-rc12	20100927.130025	experimental	334	0	2	orientation	0.700000	1	0	0	absent	1	586	80.025
EMP4	Crossover_4	1.0-rc12	20100927.130028	experimental	335	1	8	2v5	0.400000	1	0	0	present	1	502	80.033
EMP4	Crossover_4	1.0-rc12	20100927.130032	experimental	336	0	2	orientation	0.700000	1	0	0	absent	1	530	80.037
EMP4	Crossover_4	1.0-rc12	20100927.130035	experimental	337	0	2	2v5	0.400000	1	0	0	absent	1	599	80.030
EMP4	Crossover_4	1.0-rc12	20100927.130039	experimental	338	0	8	orientation	0.700000	1	0	0	absent	1	585	80.028
EMP4	Crossover_4	1.0-rc12	20100927.130043	experimental	339	1	1	2v5	0.400000	1	0	0	present	1	523	80.024
EMP4	Crossover_4	1.0-rc12	20100927.130046	experimental	340	1	1	2v5	0.400000	1	0	0	present	1	524	80.037
EMP4	Crossover_4	1.0-rc12	20100927.130050	experimental	341	1	8	2v5	0.400000	1	0	0	present	1	454	80.024
EMP4	Crossover_4	1.0-rc12	20100927.130053	experimental	342	0	2	2v5	0.400000	1	0	0	absent	1	641	80.031
EMP4	Crossover_4	1.0-rc12	20100927.130057	experimental	343	1	1	orientation	0.700000	1	0	0	present	1	516	80.025
EMP4	Crossover_4	1.0-rc12	20100927.130100	experimental	344	1	4	2v5	0.400000	1	0	0	present	1	779	80.029
EMP4	Crossover_4	1.0-rc12	20100927.130104	experimental	345	0	1	2v5	0.400000	1	0	0	absent	1	537	80.028
EMP4	Crossover_4	1.0-rc12	20100927.130108	experimental	346	1	4	orientation	0.700000	1	0	0	present	1	447	80.027
EMP4	Crossover_4	1.0-rc12	20100927.130111	experimental	347	0	4	2v5	0.400000	1	0	0	absent	1	655	80.032
EMP4	Crossover_4	1.0-rc12	20100927.130115	experimental	348	1	2	orientation	0.700000	1	0	0	present	1	517	80.031
EMP4	Crossover_4	1.0-rc12	20100927.130118	experimental	349	1	4	orientation	0.700000	1	0	0	present	1	655	80.029
EMP4	Crossover_4	1.0-rc12	20100927.130122	experimental	350	1	2	2v5	0.400000	1	0	0	present	1	606	80.029
EMP4	Crossover_4	1.0-rc12	20100927.130131	experimental	351	1	2	orientation	0.700000	1	0	0	present	1	551	80.038
EMP4	Crossover_4	1.0-rc12	20100927.130134	experimental	352	1	4	orientation	0.700000	1	0	0	present	1	516	80.026
EMP4	Crossover_4	1.0-rc12	20100927.130138	experimental	353	0	8	2v5	0.400000	1	0	0	present	0	537	80.026
EMP4	Crossover_4	1.0-rc12	20100927.130141	experimental	354	0	1	2v5	0.400000	1	0	0	absent	1	579	80.033
EMP4	Crossover_4	1.0-rc12	20100927.130145	experimental	355	0	2	orientation	0.700000	1	0	0	absent	1	987	80.030
EMP4	Crossover_4	1.0-rc12	20100927.130149	experimental	356	0	4	2v5	0.400000	1	0	0	absent	1	668	80.023
EMP4	Crossover_4	1.0-rc12	20100927.130152	experimental	357	1	8	orientation	0.700000	1	0	0	absent	0	558	80.033
EMP4	Crossover_4	1.0-rc12	20100927.130156	experimental	358	0	1	2v5	0.400000	1	0	0	absent	1	558	80.032
EMP4	Crossover_4	1.0-rc12	20100927.130200	experimental	359	0	1	orientation	0.700000	1	0	0	absent	1	537	80.026
EMP4	Crossover_4	1.0-rc12	20100927.130203	experimental	360	0	8	2v5	0.400000	1	0	0	absent	1	758	80.031
EMP4	Crossover_4	1.0-rc12	20100927.130207	experimental	361	0	1	2v5	0.400000	1	0	0	absent	1	524	80.025
EMP4	Crossover_4	1.0-rc12	20100927.130211	experimental	362	1	8	orientation	0.700000	1	0	0	present	1	481	80.027
EMP4	Crossover_4	1.0-rc12	20100927.130214	experimental	363	1	4	2v5	0.400000	1	0	0	present	1	821	80.024
EMP4	Crossover_4	1.0-rc12	20100927.130218	experimental	364	0	8	orientation	0.700000	1	0	0	absent	1	579	80.026
EMP4	Crossover_4	1.0-rc12	20100927.130221	experimental	365	0	8	2v5	0.400000	1	0	0	absent	1	800	80.024
EMP4	Crossover_4	1.0-rc12	20100927.130225	experimental	366	1	8	orientation	0.700000	1	0	0	absent	0	516	80.025
EMP4	Crossover_4	1.0-rc12	20100927.130229	experimental	367	1	1	2v5	0.400000	1	0	0	present	1	468	80.032
EMP4	Crossover_4	1.0-rc12	20100927.130232	experimental	368	1	4	orientation	0.700000	1	0	0	present	1	475	80.033
EMP4	Crossover_4	1.0-rc12	20100927.130236	experimental	369	1	8	2v5	0.400000	1	0	0	present	1	655	80.035
EMP4	Crossover_4	1.0-rc12	20100927.130239	experimental	370	0	4	2v5	0.400000	1	0	0	absent	1	613	80.032
EMP4	Crossover_4	1.0-rc12	20100927.130243	experimental	371	0	1	2v5	0.400000	1	0	0	absent	1	503	80.033
EMP4	Crossover_4	1.0-rc12	20100927.130247	experimental	372	0	4	orientation	0.700000	1	0	0	absent	1	613	80.022
EMP4	Crossover_4	1.0-rc12	20100927.130250	experimental	373	0	4	2v5	0.400000	1	0	0	absent	1	703	80.028
EMP4	Crossover_4	1.0-rc12	20100927.130254	experimental	374	1	8	orientation	0.700000	1	0	0	present	1	461	80.029
EMP4	Crossover_4	1.0-rc12	20100927.130257	experimental	375	0	4	orientation	0.700000	1	0	0	absent	1	558	80.029
EMP4	Crossover_4	1.0-rc12	20100927.130301	experimental	376	1	1	2v5	0.400000	1	0	0	present	1	565	80.029
EMP4	Crossover_4	1.0-rc12	20100927.130305	experimental	377	1	1	orientation	0.700000	1	0	0	present	1	579	80.026
EMP4	Crossover_4	1.0-rc12	20100927.130308	experimental	378	1	2	2v5	0.400000	1	0	0	present	1	551	80.026
EMP4	Crossover_4	1.0-rc12	20100927.130312	experimental	379	1	1	2v5	0.400000	1	0	0	present	1	454	80.037
EMP4	Crossover_4	1.0-rc12	20100927.130315	experimental	380	0	4	orientation	0.700000	1	0	0	absent	1	558	80.022
EMP4	Crossover_4	1.0-rc12	20100927.130319	experimental	381	1	8	2v5	0.400000	1	0	0	present	1	780	80.033
EMP4	Crossover_4	1.0-rc12	20100927.130323	experimental	382	1	1	2v5	0.400000	1	0	0	present	1	454	80.031
EMP4	Crossover_4	1.0-rc12	20100927.130326	experimental	383	1	8	orientation	0.700000	1	0	0	present	1	592	80.025
EMP4	Crossover_4	1.0-rc12	20100927.130330	experimental	384	1	2	2v5	0.400000	1	0	0	present	1	475	80.031
EMP4	Crossover_4	1.0-rc12	20100927.130333	experimental	385	0	2	orientation	0.700000	1	0	0	absent	1	537	80.026
EMP4	Crossover_4	1.0-rc12	20100927.130337	experimental	386	1	4	2v5	0.400000	1	0	0	present	1	510	80.038
EMP4	Crossover_4	1.0-rc12	20100927.130340	experimental	387	1	8	orientation	0.700000	1	0	0	present	1	481	80.021
EMP4	Crossover_4	1.0-rc12	20100927.130344	experimental	388	1	4	2v5	0.400000	1	0	0	present	1	675	80.020
EMP4	Crossover_4	1.0-rc12	20100927.130347	experimental	389	0	4	2v5	0.400000	1	0	0	absent	1	669	80.032
EMP4	Crossover_4	1.0-rc12	20100927.130351	experimental	390	1	4	2v5	0.400000	1	0	0	present	1	551	80.029
EMP4	Crossover_4	1.0-rc12	20100927.130355	experimental	391	0	1	orientation	0.700000	1	0	0	absent	1	481	80.039
EMP4	Crossover_4	1.0-rc12	20100927.130358	experimental	392	1	8	orientation	0.700000	1	0	0	present	1	558	80.033
EMP4	Crossover_4	1.0-rc12	20100927.130402	experimental	393	1	1	2v5	0.400000	1	0	0	present	1	524	80.030
EMP4	Crossover_4	1.0-rc12	20100927.130405	experimental	394	0	2	2v5	0.400000	1	0	0	absent	1	538	80.029
EMP4	Crossover_4	1.0-rc12	20100927.130409	experimental	395	0	1	2v5	0.400000	1	0	0	absent	1	537	80.032
EMP4	Crossover_4	1.0-rc12	20100927.130412	experimental	396	1	8	orientation	0.700000	1	0	0	present	1	565	80.034
EMP4	Crossover_4	1.0-rc12	20100927.130416	experimental	397	0	1	orientation	0.700000	1	0	0	absent	1	516	80.039
EMP4	Crossover_4	1.0-rc12	20100927.130419	experimental	398	1	1	orientation	0.700000	1	0	0	present	1	558	80.026
EMP4	Crossover_4	1.0-rc12	20100927.130423	experimental	399	0	2	orientation	0.700000	1	0	0	absent	1	461	80.033
EMP4	Crossover_4	1.0-rc12	20100927.130426	experimental	400	0	8	orientation	0.700000	1	0	0	absent	1	572	80.040
EMP4	Crossover_4	1.0-rc12	20101001.111700	practice	1	1	8	2v5	0.400000	1	0	0	absent	0	702	80.025
EMP4	Crossover_4	1.0-rc12	20101001.111704	practice	2	1	4	orientation	0.700000	1	0	0	present	1	514	80.032
EMP4	Crossover_4	1.0-rc12	20101001.111707	practice	3	0	4	2v5	0.400000	1	0	0	absent	1	583	80.025
EMP4	Crossover_4	1.0-rc12	20101001.111711	practice	4	1	2	orientation	0.700000	1	0	0	present	1	618	80.031
EMP4	Crossover_4	1.0-rc12	20101001.111715	practice	5	0	8	2v5	0.400000	1	0	0	absent	1	631	80.027
EMP4	Crossover_4	1.0-rc12	20101001.111718	practice	6	0	1	orientation	0.700000	1	0	0	absent	1	528	80.028
EMP4	Crossover_4	1.0-rc12	20101001.111722	practice	7	1	1	2v5	0.400000	1	0	0	present	1	617	80.023
EMP4	Crossover_4	1.0-rc12	20101001.111725	practice	8	0	4	2v5	0.400000	1	0	0	absent	1	638	80.029
EMP4	Crossover_4	1.0-rc12	20101001.111729	practice	9	0	8	orientation	0.700000	1	0	0	absent	1	590	80.036
EMP4	Crossover_4	1.0-rc12	20101001.111733	practice	10	1	2	2v5	0.400000	1	0	0	present	1	1079	80.039
EMP4	Crossover_4	1.0-rc12	20101001.111737	practice	11	0	1	orientation	0.700000	1	0	0	absent	1	803	80.039
EMP4	Crossover_4	1.0-rc12	20101001.111741	practice	12	1	8	orientation	0.700000	1	0	0	present	1	556	80.034
EMP4	Crossover_4	1.0-rc12	20101001.111744	practice	13	0	8	orientation	0.700000	1	0	0	absent	1	501	80.027
EMP4	Crossover_4	1.0-rc12	20101001.111748	practice	14	1	2	orientation	0.700000	1	0	0	absent	0	632	80.044
EMP4	Crossover_4	1.0-rc12	20101001.111751	practice	15	0	2	orientation	0.700000	1	0	0	absent	1	452	80.020
EMP4	Crossover_4	1.0-rc12	20101001.111755	practice	16	1	1	orientation	0.700000	1	0	0	present	1	418	80.029
EMP4	Crossover_4	1.0-rc12	20101001.111758	practice	17	0	4	2v5	0.400000	1	0	0	absent	1	466	80.018
EMP4	Crossover_4	1.0-rc12	20101001.111802	practice	18	1	8	orientation	0.700000	1	0	0	present	1	549	80.032
EMP4	Crossover_4	1.0-rc12	20101001.111805	practice	19	1	1	2v5	0.400000	1	0	0	present	1	473	80.020
EMP4	Crossover_4	1.0-rc12	20101001.111809	practice	20	1	1	orientation	0.700000	1	0	0	present	1	968	80.023
EMP4	Crossover_4	1.0-rc12	20101001.111813	practice	21	1	8	2v5	0.400000	1	0	0	present	1	4070	80.033
EMP4	Crossover_4	1.0-rc12	20101001.111820	practice	22	0	2	2v5	0.400000	1	0	0	absent	1	507	80.034
EMP4	Crossover_4	1.0-rc12	20101001.111823	practice	23	0	1	2v5	0.400000	1	0	0	absent	1	479	80.020
EMP4	Crossover_4	1.0-rc12	20101001.111827	practice	24	0	8	orientation	0.700000	1	0	0	present	0	438	80.025
EMP4	Crossover_4	1.0-rc12	20101001.111830	practice	25	0	1	orientation	0.700000	1	0	0	absent	1	1017	80.026
EMP4	Crossover_4	1.0-rc12	20101001.111834	practice	26	1	2	2v5	0.400000	1	0	0	present	1	459	80.037
EMP4	Crossover_4	1.0-rc12	20101001.111838	practice	27	0	2	orientation	0.700000	1	0	0	absent	1	452	80.031
EMP4	Crossover_4	1.0-rc12	20101001.111841	practice	28	0	2	orientation	0.700000	1	0	0	absent	1	659	80.028
EMP4	Crossover_4	1.0-rc12	20101001.111845	practice	29	1	2	2v5	0.400000	1	0	0	present	1	383	80.031
EMP4	Crossover_4	1.0-rc12	20101001.111848	practice	30	1	2	2v5	0.400000	1	0	0	present	1	638	80.024
EMP4	Crossover_4	1.0-rc12	20101001.111852	practice	31	1	4	orientation	0.700000	1	0	0	present	1	390	80.027
EMP4	Crossover_4	1.0-rc12	20101001.111856	practice	32	0	2	2v5	0.400000	1	0	0	absent	1	714	80.033
EMP4	Crossover_4	1.0-rc12	20101001.111859	practice	33	1	4	2v5	0.400000	1	0	0	present	1	529	80.035
EMP4	Crossover_4	1.0-rc12	20101001.111903	practice	34	0	4	orientation	0.700000	1	0	0	absent	1	638	80.033
EMP4	Crossover_4	1.0-rc12	20101001.111907	practice	35	1	2	orientation	0.700000	1	0	0	present	1	438	80.028
EMP4	Crossover_4	1.0-rc12	20101001.111910	practice	36	0	8	2v5	0.400000	1	0	0	present	0	1292	80.028
EMP4	Crossover_4	1.0-rc12	20101001.111914	practice	37	1	8	orientation	0.700000	1	0	0	present	1	562	80.028
EMP4	Crossover_4	1.0-rc12	20101001.111918	practice	38	1	1	2v5	0.400000	1	0	0	present	1	459	80.029
EMP4	Crossover_4	1.0-rc12	20101001.111921	practice	39	0	4	orientation	0.700000	1	0	0	absent	1	597	80.030
EMP4	Crossover_4	1.0-rc12	20101001.111925	practice	40	0	8	2v5	0.400000	1	0	0	present	0	418	80.026
EMP4	Crossover_4	1.0-rc12	20101001.111928	practice	41	1	8	orientation	0.700000	1	0	0	absent	0	1071	80.032
EMP4	Crossover_4	1.0-rc12	20101001.111933	practice	42	0	4	orientation	0.700000	1	0	0	absent	1	576	80.031
EMP4	Crossover_4	1.0-rc12	20101001.111936	practice	43	1	4	2v5	0.400000	1	0	0	absent	0	1313	80.039
EMP4	Crossover_4	1.0-rc12	20101001.111941	practice	44	1	8	2v5	0.400000	1	0	0	present	1	501	80.028
EMP4	Crossover_4	1.0-rc12	20101001.111944	practice	45	1	4	2v5	0.400000	1	0	0	present	1	679	80.033
EMP4	Crossover_4	1.0-rc12	20101001.111948	practice	46	1	1	orientation	0.700000	1	0	0	present	1	486	80.026
EMP4	Crossover_4	1.0-rc12	20101001.111951	practice	47	1	1	2v5	0.400000	1	0	0	present	1	397	80.025
EMP4	Crossover_4	1.0-rc12	20101001.111955	practice	48	1	8	2v5	0.400000	1	0	0	present	1	1010	80.030
EMP4	Crossover_4	1.0-rc12	20101001.111959	practice	49	0	8	orientation	0.700000	1	0	0	absent	1	1285	80.032
EMP4	Crossover_4	1.0-rc12	20101001.112003	practice	50	0	8	2v5	0.400000	1	0	0	present	0	838	80.020
EMP4	Crossover_4	1.0-rc12	20101001.112007	experimental	1	1	4	orientation	0.700000	1	0	0	present	1	528	80.029
EMP4	Crossover_4	1.0-rc12	20101001.112011	experimental	2	0	1	2v5	0.400000	1	0	0	absent	1	604	80.026
EMP4	Crossover_4	1.0-rc12	20101001.112014	experimental	3	1	4	orientation	0.700000	1	0	0	present	1	466	80.034
EMP4	Crossover_4	1.0-rc12	20101001.112018	experimental	4	0	4	orientation	0.700000	1	0	0	present	0	473	80.033
EMP4	Crossover_4	1.0-rc12	20101001.112021	experimental	5	1	2	orientation	0.700000	1	0	0	present	1	452	80.032
EMP4	Crossover_4	1.0-rc12	20101001.112025	experimental	6	0	8	2v5	0.400000	1	0	0	absent	1	645	80.029
EMP4	Crossover_4	1.0-rc12	20101001.112028	experimental	7	0	1	2v5	0.400000	1	0	0	absent	1	514	80.033
EMP4	Crossover_4	1.0-rc12	20101001.112032	experimental	8	1	2	2v5	0.400000	1	0	0	present	1	446	80.036
EMP4	Crossover_4	1.0-rc12	20101001.112035	experimental	9	1	4	2v5	0.400000	1	0	0	present	1	452	80.032
EMP4	Crossover_4	1.0-rc12	20101001.112039	experimental	10	0	4	orientation	0.700000	1	0	0	absent	1	501	80.029
EMP4	Crossover_4	1.0-rc12	20101001.112042	experimental	11	1	8	orientation	0.700000	1	0	0	present	1	432	80.033
EMP4	Crossover_4	1.0-rc12	20101001.112046	experimental	12	0	8	orientation	0.700000	1	0	0	absent	1	535	80.027
EMP4	Crossover_4	1.0-rc12	20101001.112049	experimental	13	0	8	orientation	0.700000	1	0	0	absent	1	549	80.026
EMP4	Crossover_4	1.0-rc12	20101001.112053	experimental	14	1	2	orientation	0.700000	1	0	0	absent	0	473	80.030
EMP4	Crossover_4	1.0-rc12	20101001.112057	experimental	15	0	8	orientation	0.700000	1	0	0	absent	1	610	80.030
EMP4	Crossover_4	1.0-rc12	20101001.112100	experimental	16	0	4	2v5	0.400000	1	0	0	present	0	1382	80.026
EMP4	Crossover_4	1.0-rc12	20101001.112105	experimental	17	0	4	2v5	0.400000	1	0	0	absent	1	658	80.032
EMP4	Crossover_4	1.0-rc12	20101001.112108	experimental	18	1	2	orientation	0.700000	1	0	0	present	1	486	80.040
EMP4	Crossover_4	1.0-rc12	20101001.112112	experimental	19	0	4	2v5	0.400000	1	0	0	absent	1	920	80.031
EMP4	Crossover_4	1.0-rc12	20101001.112116	experimental	20	1	8	2v5	0.400000	1	0	0	present	1	872	80.034
EMP4	Crossover_4	1.0-rc12	20101001.112120	experimental	21	0	4	orientation	0.700000	1	0	0	absent	1	989	80.038
EMP4	Crossover_4	1.0-rc12	20101001.112124	experimental	22	0	2	orientation	0.700000	1	0	0	absent	1	735	80.027
EMP4	Crossover_4	1.0-rc12	20101001.112128	experimental	23	1	4	2v5	0.400000	1	0	0	present	1	569	80.027
EMP4	Crossover_4	1.0-rc12	20101001.112131	experimental	24	0	2	2v5	0.400000	1	0	0	absent	1	556	80.035
EMP4	Crossover_4	1.0-rc12	20101001.112135	experimental	25	0	2	orientation	0.700000	1	0	0	absent	1	466	80.028
EMP4	Crossover_4	1.0-rc12	20101001.112138	experimental	26	0	8	orientation	0.700000	1	0	0	absent	1	590	80.033
EMP4	Crossover_4	1.0-rc12	20101001.112142	experimental	27	0	8	orientation	0.700000	1	0	0	absent	1	617	80.023
EMP4	Crossover_4	1.0-rc12	20101001.112146	experimental	28	1	1	2v5	0.400000	1	0	0	present	1	501	80.028
EMP4	Crossover_4	1.0-rc12	20101001.112149	experimental	29	1	4	orientation	0.700000	1	0	0	present	1	590	80.031
EMP4	Crossover_4	1.0-rc12	20101001.112153	experimental	30	1	2	2v5	0.400000	1	0	0	present	1	707	80.024
EMP4	Crossover_4	1.0-rc12	20101001.112156	experimental	31	0	1	orientation	0.700000	1	0	0	present	0	1038	80.033
EMP4	Crossover_4	1.0-rc12	20101001.112201	experimental	32	1	1	2v5	0.400000	1	0	0	absent	0	576	80.026
EMP4	Crossover_4	1.0-rc12	20101001.112204	experimental	33	0	2	orientation	0.700000	1	0	0	absent	1	507	80.034
EMP4	Crossover_4	1.0-rc12	20101001.112208	experimental	34	1	4	orientation	0.700000	1	0	0	present	1	473	80.033
EMP4	Crossover_4	1.0-rc12	20101001.112211	experimental	35	0	2	2v5	0.400000	1	0	0	absent	1	556	80.029
EMP4	Crossover_4	1.0-rc12	20101001.112215	experimental	36	0	4	orientation	0.700000	1	0	0	absent	1	707	80.030
EMP4	Crossover_4	1.0-rc12	20101001.112219	experimental	37	0	8	2v5	0.400000	1	0	0	present	0	638	80.031
EMP4	Crossover_4	1.0-rc12	20101001.112222	experimental	38	1	4	2v5	0.400000	1	0	0	present	1	624	80.035
EMP4	Crossover_4	1.0-rc12	20101001.112226	experimental	39	1	4	orientation	0.700000	1	0	0	present	1	617	80.027
EMP4	Crossover_4	1.0-rc12	20101001.112230	experimental	40	1	2	orientation	0.700000	1	0	0	present	1	514	80.034
EMP4	Crossover_4	1.0-rc12	20101001.112233	experimental	41	1	1	2v5	0.400000	1	0	0	present	1	583	80.030
EMP4	Crossover_4	1.0-rc12	20101001.112237	experimental	42	0	2	orientation	0.700000	1	0	0	absent	1	507	80.030
EMP4	Crossover_4	1.0-rc12	20101001.112240	experimental	43	1	4	2v5	0.400000	1	0	0	present	1	782	80.031
EMP4	Crossover_4	1.0-rc12	20101001.112244	experimental	44	0	1	2v5	0.400000	1	0	0	absent	1	582	80.025
EMP4	Crossover_4	1.0-rc12	20101001.112248	experimental	45	1	4	orientation	0.700000	1	0	0	present	1	548	80.025
EMP4	Crossover_4	1.0-rc12	20101001.112251	experimental	46	1	2	2v5	0.400000	1	0	0	present	1	466	80.026
EMP4	Crossover_4	1.0-rc12	20101001.112255	experimental	47	1	8	2v5	0.400000	1	0	0	present	1	466	80.032
EMP4	Crossover_4	1.0-rc12	20101001.112258	experimental	48	0	1	2v5	0.400000	1	0	0	absent	1	473	80.035
EMP4	Crossover_4	1.0-rc12	20101001.112302	experimental	49	0	4	orientation	0.700000	1	0	0	absent	1	1071	80.030
EMP4	Crossover_4	1.0-rc12	20101001.112306	experimental	50	0	4	2v5	0.400000	1	0	0	present	0	1135	80.029
EMP4	Crossover_4	1.0-rc12	20101001.112341	experimental	51	1	8	orientation	0.700000	1	0	0	present	1	514	80.032
EMP4	Crossover_4	1.0-rc12	20101001.112344	experimental	52	0	2	2v5	0.400000	1	0	0	absent	1	1555	80.028
EMP4	Crossover_4	1.0-rc12	20101001.112349	experimental	53	1	4	2v5	0.400000	1	0	0	absent	0	1417	80.027
EMP4	Crossover_4	1.0-rc12	20101001.112353	experimental	54	1	2	orientation	0.700000	1	0	0	present	1	452	80.029
EMP4	Crossover_4	1.0-rc12	20101001.112357	experimental	55	0	4	2v5	0.400000	1	0	0	absent	1	825	80.031
EMP4	Crossover_4	1.0-rc12	20101001.112400	experimental	56	0	8	orientation	0.700000	1	0	0	absent	1	1829	80.027
EMP4	Crossover_4	1.0-rc12	20101001.112405	experimental	57	0	4	orientation	0.700000	1	0	0	absent	1	1437	80.036
EMP4	Crossover_4	1.0-rc12	20101001.112410	experimental	58	1	8	2v5	0.400000	1	0	0	present	1	467	80.036
EMP4	Crossover_4	1.0-rc12	20101001.112413	experimental	59	0	1	2v5	0.400000	1	0	0	absent	1	480	80.029
EMP4	Crossover_4	1.0-rc12	20101001.112417	experimental	60	0	1	2v5	0.400000	1	0	0	absent	1	521	80.031
EMP4	Crossover_4	1.0-rc12	20101001.112420	experimental	61	0	4	orientation	0.700000	1	0	0	present	0	535	80.021
EMP4	Crossover_4	1.0-rc12	20101001.112424	experimental	62	0	1	2v5	0.400000	1	0	0	absent	1	535	80.023
EMP4	Crossover_4	1.0-rc12	20101001.112427	experimental	63	1	1	2v5	0.400000	1	0	0	present	1	604	80.021
EMP4	Crossover_4	1.0-rc12	20101001.112431	experimental	64	1	4	orientation	0.700000	1	0	0	present	1	507	80.027
EMP4	Crossover_4	1.0-rc12	20101001.112435	experimental	65	1	2	orientation	0.700000	1	0	0	present	1	686	80.034
EMP4	Crossover_4	1.0-rc12	20101001.112438	experimental	66	1	8	orientation	0.700000	1	0	0	absent	0	521	80.029
EMP4	Crossover_4	1.0-rc12	20101001.112442	experimental	67	0	2	orientation	0.700000	1	0	0	absent	1	1320	80.028
EMP4	Crossover_4	1.0-rc12	20101001.112446	experimental	68	1	2	2v5	0.400000	1	0	0	present	1	480	80.031
EMP4	Crossover_4	1.0-rc12	20101001.112450	experimental	69	0	1	orientation	0.700000	1	0	0	absent	1	947	80.039
EMP4	Crossover_4	1.0-rc12	20101001.112454	experimental	70	1	8	2v5	0.400000	1	0	0	absent	0	818	80.027
EMP4	Crossover_4	1.0-rc12	20101001.112457	experimental	71	0	2	2v5	0.400000	1	0	0	absent	1	562	80.030
EMP4	Crossover_4	1.0-rc12	20101001.112501	experimental	72	1	8	2v5	0.400000	1	0	0	present	1	1030	80.023
EMP4	Crossover_4	1.0-rc12	20101001.112505	experimental	73	1	8	orientation	0.700000	1	0	0	present	1	500	80.022
EMP4	Crossover_4	1.0-rc12	20101001.112509	experimental	74	1	1	2v5	0.400000	1	0	0	present	1	542	80.033
EMP4	Crossover_4	1.0-rc12	20101001.112512	experimental	75	1	2	2v5	0.400000	1	0	0	present	1	528	80.036
EMP4	Crossover_4	1.0-rc12	20101001.112516	experimental	76	0	2	2v5	0.400000	1	0	0	absent	1	549	80.032
EMP4	Crossover_4	1.0-rc12	20101001.112519	experimental	77	1	8	2v5	0.400000	1	0	0	absent	0	996	80.039
EMP4	Crossover_4	1.0-rc12	20101001.112523	experimental	78	1	1	orientation	0.700000	1	0	0	present	1	479	80.020
EMP4	Crossover_4	1.0-rc12	20101001.112527	experimental	79	0	4	2v5	0.400000	1	0	0	absent	1	611	80.031
EMP4	Crossover_4	1.0-rc12	20101001.112531	experimental	80	0	2	2v5	0.400000	1	0	0	absent	1	562	80.030
EMP4	Crossover_4	1.0-rc12	20101001.112534	experimental	81	1	1	2v5	0.400000	1	0	0	present	1	459	80.025
EMP4	Crossover_4	1.0-rc12	20101001.112538	experimental	82	1	8	2v5	0.400000	1	0	0	absent	0	721	80.019
EMP4	Crossover_4	1.0-rc12	20101001.112541	experimental	83	0	2	2v5	0.400000	1	0	0	absent	1	539	80.030
EMP4	Crossover_4	1.0-rc12	20101001.112545	experimental	84	1	8	orientation	0.700000	1	0	0	absent	0	708	80.035
EMP4	Crossover_4	1.0-rc12	20101001.112549	experimental	85	0	8	2v5	0.400000	1	0	0	present	0	666	80.030
EMP4	Crossover_4	1.0-rc12	20101001.112552	experimental	86	0	4	orientation	0.700000	1	0	0	absent	1	590	80.023
EMP4	Crossover_4	1.0-rc12	20101001.112556	experimental	87	0	1	orientation	0.700000	1	0	0	absent	1	549	80.029
EMP4	Crossover_4	1.0-rc12	20101001.112559	experimental	88	1	1	2v5	0.400000	1	0	0	present	1	521	80.040
EMP4	Crossover_4	1.0-rc12	20101001.112603	experimental	89	0	4	2v5	0.400000	1	0	0	present	0	1321	80.032
EMP4	Crossover_4	1.0-rc12	20101001.112607	experimental	90	1	8	orientation	0.700000	1	0	0	absent	0	535	80.029
EMP4	Crossover_4	1.0-rc12	20101001.112611	experimental	91	1	8	orientation	0.700000	1	0	0	present	1	453	80.019
EMP4	Crossover_4	1.0-rc12	20101001.112614	experimental	92	1	8	orientation	0.700000	1	0	0	present	1	542	80.033
EMP4	Crossover_4	1.0-rc12	20101001.112618	experimental	93	1	4	orientation	0.700000	1	0	0	present	1	480	80.027
EMP4	Crossover_4	1.0-rc12	20101001.112622	experimental	94	1	4	orientation	0.700000	1	0	0	present	1	452	80.033
EMP4	Crossover_4	1.0-rc12	20101001.112625	experimental	95	0	1	orientation	0.700000	1	0	0	absent	1	473	80.028
EMP4	Crossover_4	1.0-rc12	20101001.112629	experimental	96	0	2	orientation	0.700000	1	0	0	present	0	535	80.032
EMP4	Crossover_4	1.0-rc12	20101001.112632	experimental	97	1	4	2v5	0.400000	1	0	0	present	1	1272	80.037
EMP4	Crossover_4	1.0-rc12	20101001.112636	experimental	98	0	8	orientation	0.700000	1	0	0	absent	1	597	80.031
EMP4	Crossover_4	1.0-rc12	20101001.112640	experimental	99	0	1	orientation	0.700000	1	0	0	absent	1	727	80.031
EMP4	Crossover_4	1.0-rc12	20101001.112644	experimental	100	1	8	2v5	0.400000	1	0	0	present	1	838	80.028
EMP4	Crossover_4	1.0-rc12	20101001.112718	experimental	101	0	1	orientation	0.700000	1	0	0	absent	1	445	80.024
EMP4	Crossover_4	1.0-rc12	20101001.112721	experimental	102	0	4	2v5	0.400000	1	0	0	present	0	521	80.034
EMP4	Crossover_4	1.0-rc12	20101001.112725	experimental	103	1	1	2v5	0.400000	1	0	0	present	1	721	80.032
EMP4	Crossover_4	1.0-rc12	20101001.112729	experimental	104	0	2	2v5	0.400000	1	0	0	absent	1	686	80.029
EMP4	Crossover_4	1.0-rc12	20101001.112732	experimental	105	1	2	2v5	0.400000	1	0	0	absent	0	638	80.029
EMP4	Crossover_4	1.0-rc12	20101001.112736	experimental	106	1	2	2v5	0.400000	1	0	0	present	1	459	80.029
EMP4	Crossover_4	1.0-rc12	20101001.112740	experimental	107	1	4	2v5	0.400000	1	0	0	present	1	452	80.026
EMP4	Crossover_4	1.0-rc12	20101001.112743	experimental	108	1	2	orientation	0.700000	1	0	0	present	1	487	80.024
EMP4	Crossover_4	1.0-rc12	20101001.112747	experimental	109	1	2	2v5	0.400000	1	0	0	present	1	576	80.023
EMP4	Crossover_4	1.0-rc12	20101001.112750	experimental	110	1	1	2v5	0.400000	1	0	0	present	1	439	80.025
EMP4	Crossover_4	1.0-rc12	20101001.112754	experimental	111	1	1	2v5	0.400000	1	0	0	present	1	404	80.027
EMP4	Crossover_4	1.0-rc12	20101001.112757	experimental	112	0	8	2v5	0.400000	1	0	0	present	0	921	80.029
EMP4	Crossover_4	1.0-rc12	20101001.112801	experimental	113	0	4	2v5	0.400000	1	0	0	present	0	1024	80.028
EMP4	Crossover_4	1.0-rc12	20101001.112805	experimental	114	0	2	orientation	0.700000	1	0	0	absent	1	576	80.027
EMP4	Crossover_4	1.0-rc12	20101001.112809	experimental	115	1	1	orientation	0.700000	1	0	0	present	1	618	80.033
EMP4	Crossover_4	1.0-rc12	20101001.112812	experimental	116	0	1	orientation	0.700000	1	0	0	absent	1	639	80.028
EMP4	Crossover_4	1.0-rc12	20101001.112816	experimental	117	1	1	orientation	0.700000	1	0	0	present	1	473	80.035
EMP4	Crossover_4	1.0-rc12	20101001.112820	experimental	118	1	1	orientation	0.700000	1	0	0	present	1	549	80.030
EMP4	Crossover_4	1.0-rc12	20101001.112823	experimental	119	1	4	orientation	0.700000	1	0	0	present	1	487	80.031
EMP4	Crossover_4	1.0-rc12	20101001.112827	experimental	120	1	4	2v5	0.400000	1	0	0	absent	0	873	80.029
EMP4	Crossover_4	1.0-rc12	20101001.112831	experimental	121	0	1	orientation	0.700000	1	0	0	absent	1	515	80.031
EMP4	Crossover_4	1.0-rc12	20101001.112834	experimental	122	0	4	orientation	0.700000	1	0	0	absent	1	576	80.046
EMP4	Crossover_4	1.0-rc12	20101001.112838	experimental	123	1	8	2v5	0.400000	1	0	0	present	1	714	80.029
EMP4	Crossover_4	1.0-rc12	20101001.112842	experimental	124	0	2	2v5	0.400000	1	0	0	absent	1	852	80.033
EMP4	Crossover_4	1.0-rc12	20101001.112846	experimental	125	0	2	2v5	0.400000	1	0	0	present	0	431	80.030
EMP4	Crossover_4	1.0-rc12	20101001.112849	experimental	126	0	4	2v5	0.400000	1	0	0	absent	1	735	80.021
EMP4	Crossover_4	1.0-rc12	20101001.112853	experimental	127	0	8	orientation	0.700000	1	0	0	absent	1	714	80.030
EMP4	Crossover_4	1.0-rc12	20101001.112857	experimental	128	1	8	2v5	0.400000	1	0	0	present	1	501	80.022
EMP4	Crossover_4	1.0-rc12	20101001.112900	experimental	129	0	1	orientation	0.700000	1	0	0	absent	1	556	80.029
EMP4	Crossover_4	1.0-rc12	20101001.112904	experimental	130	0	8	orientation	0.700000	1	0	0	absent	1	549	80.038
EMP4	Crossover_4	1.0-rc12	20101001.112907	experimental	131	0	4	orientation	0.700000	1	0	0	absent	1	1093	80.031
EMP4	Crossover_4	1.0-rc12	20101001.112912	experimental	132	0	1	orientation	0.700000	1	0	0	absent	1	556	80.035
EMP4	Crossover_4	1.0-rc12	20101001.112915	experimental	133	1	8	2v5	0.400000	1	0	0	present	1	639	80.024
EMP4	Crossover_4	1.0-rc12	20101001.112919	experimental	134	0	8	orientation	0.700000	1	0	0	absent	1	1050	80.029
EMP4	Crossover_4	1.0-rc12	20101001.112923	experimental	135	0	4	orientation	0.700000	1	0	0	present	0	1733	80.031
EMP4	Crossover_4	1.0-rc12	20101001.112928	experimental	136	0	1	orientation	0.700000	1	0	0	absent	1	411	80.035
EMP4	Crossover_4	1.0-rc12	20101001.112931	experimental	137	0	8	2v5	0.400000	1	0	0	present	0	652	80.037
EMP4	Crossover_4	1.0-rc12	20101001.112935	experimental	138	1	1	2v5	0.400000	1	0	0	present	1	501	80.030
EMP4	Crossover_4	1.0-rc12	20101001.112938	experimental	139	1	4	2v5	0.400000	1	0	0	present	1	879	80.033
EMP4	Crossover_4	1.0-rc12	20101001.112942	experimental	140	0	8	2v5	0.400000	1	0	0	present	0	479	80.033
EMP4	Crossover_4	1.0-rc12	20101001.112946	experimental	141	0	8	orientation	0.700000	1	0	0	absent	1	603	80.028
EMP4	Crossover_4	1.0-rc12	20101001.112949	experimental	142	0	8	orientation	0.700000	1	0	0	absent	1	618	80.038
EMP4	Crossover_4	1.0-rc12	20101001.112953	experimental	143	0	2	orientation	0.700000	1	0	0	absent	1	570	80.028
EMP4	Crossover_4	1.0-rc12	20101001.112957	experimental	144	0	8	orientation	0.700000	1	0	0	absent	1	563	80.032
EMP4	Crossover_4	1.0-rc12	20101001.113000	experimental	145	0	4	orientation	0.700000	1	0	0	absent	1	569	80.027
EMP4	Crossover_4	1.0-rc12	20101001.113004	experimental	146	1	1	2v5	0.400000	1	0	0	present	1	494	80.033
EMP4	Crossover_4	1.0-rc12	20101001.113007	experimental	147	0	4	2v5	0.400000	1	0	0	absent	1	949	80.023
EMP4	Crossover_4	1.0-rc12	20101001.113011	experimental	148	0	2	orientation	0.700000	1	0	0	absent	1	570	80.030
EMP4	Crossover_4	1.0-rc12	20101001.113015	experimental	149	0	4	2v5	0.400000	1	0	0	present	0	769	80.020
EMP4	Crossover_4	1.0-rc12	20101001.113019	experimental	150	1	2	2v5	0.400000	1	0	0	absent	0	1568	80.020
EMP4	Crossover_4	1.0-rc12	20101001.113050	experimental	151	0	1	orientation	0.700000	1	0	0	absent	1	563	80.034
EMP4	Crossover_4	1.0-rc12	20101001.113054	experimental	152	1	1	orientation	0.700000	1	0	0	present	1	473	80.031
EMP4	Crossover_4	1.0-rc12	20101001.113057	experimental	153	1	8	2v5	0.400000	1	0	0	present	1	1031	80.031
EMP4	Crossover_4	1.0-rc12	20101001.113101	experimental	154	1	2	orientation	0.700000	1	0	0	present	1	20713	80.029
EMP4	Crossover_4	1.0-rc12	20101001.113125	experimental	155	1	1	2v5	0.400000	1	0	0	present	1	666	80.026
EMP4	Crossover_4	1.0-rc12	20101001.113129	experimental	156	0	2	2v5	0.400000	1	0	0	absent	1	562	80.028
EMP4	Crossover_4	1.0-rc12	20101001.113132	experimental	157	1	4	2v5	0.400000	1	0	0	present	1	528	80.027
EMP4	Crossover_4	1.0-rc12	20101001.113136	experimental	158	0	4	orientation	0.700000	1	0	0	absent	1	549	80.023
EMP4	Crossover_4	1.0-rc12	20101001.113140	experimental	159	0	4	2v5	0.400000	1	0	0	absent	1	1030	80.023
EMP4	Crossover_4	1.0-rc12	20101001.113144	experimental	160	0	1	2v5	0.400000	1	0	0	absent	1	583	80.034
EMP4	Crossover_4	1.0-rc12	20101001.113147	experimental	161	1	2	2v5	0.400000	1	0	0	present	1	590	80.026
EMP4	Crossover_4	1.0-rc12	20101001.113151	experimental	162	1	2	2v5	0.400000	1	0	0	present	1	749	80.029
EMP4	Crossover_4	1.0-rc12	20101001.113155	experimental	163	1	1	orientation	0.700000	1	0	0	present	1	514	80.031
EMP4	Crossover_4	1.0-rc12	20101001.113158	experimental	164	1	8	2v5	0.400000	1	0	0	absent	0	852	80.033
EMP4	Crossover_4	1.0-rc12	20101001.113202	experimental	165	0	8	2v5	0.400000	1	0	0	present	0	631	80.031
EMP4	Crossover_4	1.0-rc12	20101001.113206	experimental	166	0	2	orientation	0.700000	1	0	0	absent	1	521	80.024
EMP4	Crossover_4	1.0-rc12	20101001.113209	experimental	167	0	4	orientation	0.700000	1	0	0	absent	1	597	80.031
EMP4	Crossover_4	1.0-rc12	20101001.113213	experimental	168	0	4	2v5	0.400000	1	0	0	absent	1	996	80.030
EMP4	Crossover_4	1.0-rc12	20101001.113217	experimental	169	0	2	orientation	0.700000	1	0	0	absent	1	831	80.027
EMP4	Crossover_4	1.0-rc12	20101001.113221	experimental	170	1	1	2v5	0.400000	1	0	0	present	1	521	80.023
EMP4	Crossover_4	1.0-rc12	20101001.113224	experimental	171	1	4	2v5	0.400000	1	0	0	present	1	631	80.031
EMP4	Crossover_4	1.0-rc12	20101001.113228	experimental	172	1	1	orientation	0.700000	1	0	0	present	1	576	80.028
EMP4	Crossover_4	1.0-rc12	20101001.113232	experimental	173	0	2	2v5	0.400000	1	0	0	absent	1	631	80.021
EMP4	Crossover_4	1.0-rc12	20101001.113235	experimental	174	0	4	orientation	0.700000	1	0	0	present	0	1038	80.028
EMP4	Crossover_4	1.0-rc12	20101001.113239	experimental	175	0	2	orientation	0.700000	1	0	0	absent	1	748	80.034
EMP4	Crossover_4	1.0-rc12	20101001.113243	experimental	176	0	8	2v5	0.400000	1	0	0	absent	1	969	80.029
EMP4	Crossover_4	1.0-rc12	20101001.113247	experimental	177	1	8	2v5	0.400000	1	0	0	present	1	521	80.020
EMP4	Crossover_4	1.0-rc12	20101001.113251	experimental	178	0	8	orientation	0.700000	1	0	0	absent	1	549	80.028
EMP4	Crossover_4	1.0-rc12	20101001.113254	experimental	179	1	2	orientation	0.700000	1	0	0	present	1	493	80.035
EMP4	Crossover_4	1.0-rc12	20101001.113258	experimental	180	1	4	2v5	0.400000	1	0	0	absent	0	2174	80.032
EMP4	Crossover_4	1.0-rc12	20101001.113303	experimental	181	1	4	orientation	0.700000	1	0	0	absent	0	493	80.035
EMP4	Crossover_4	1.0-rc12	20101001.113306	experimental	182	1	1	2v5	0.400000	1	0	0	present	1	528	80.026
EMP4	Crossover_4	1.0-rc12	20101001.113310	experimental	183	0	1	2v5	0.400000	1	0	0	absent	1	714	80.034
EMP4	Crossover_4	1.0-rc12	20101001.113314	experimental	184	1	8	orientation	0.700000	1	0	0	present	1	604	80.033
EMP4	Crossover_4	1.0-rc12	20101001.113317	experimental	185	1	1	2v5	0.400000	1	0	0	present	1	549	80.033
EMP4	Crossover_4	1.0-rc12	20101001.113321	experimental	186	1	8	2v5	0.400000	1	0	0	present	1	1292	80.031
EMP4	Crossover_4	1.0-rc12	20101001.113325	experimental	187	0	4	2v5	0.400000	1	0	0	absent	1	611	80.025
EMP4	Crossover_4	1.0-rc12	20101001.113329	experimental	188	0	2	orientation	0.700000	1	0	0	absent	1	535	80.037
EMP4	Crossover_4	1.0-rc12	20101001.113332	experimental	189	0	4	orientation	0.700000	1	0	0	absent	1	535	80.029
EMP4	Crossover_4	1.0-rc12	20101001.113336	experimental	190	1	1	orientation	0.700000	1	0	0	present	1	487	80.029
EMP4	Crossover_4	1.0-rc12	20101001.113340	experimental	191	1	2	orientation	0.700000	1	0	0	present	1	542	80.032
EMP4	Crossover_4	1.0-rc12	20101001.113343	experimental	192	1	8	orientation	0.700000	1	0	0	present	1	493	80.037
EMP4	Crossover_4	1.0-rc12	20101001.113347	experimental	193	1	2	orientation	0.700000	1	0	0	present	1	487	80.027
EMP4	Crossover_4	1.0-rc12	20101001.113350	experimental	194	0	4	2v5	0.400000	1	0	0	absent	1	1712	80.031
EMP4	Crossover_4	1.0-rc12	20101001.113355	experimental	195	0	2	orientation	0.700000	1	0	0	absent	1	707	80.032
EMP4	Crossover_4	1.0-rc12	20101001.113359	experimental	196	0	4	orientation	0.700000	1	0	0	absent	1	590	80.034
EMP4	Crossover_4	1.0-rc12	20101001.113402	experimental	197	0	1	2v5	0.400000	1	0	0	absent	1	611	80.040
EMP4	Crossover_4	1.0-rc12	20101001.113406	experimental	198	0	1	2v5	0.400000	1	0	0	absent	1	652	80.028
EMP4	Crossover_4	1.0-rc12	20101001.113410	experimental	199	1	1	orientation	0.700000	1	0	0	present	1	968	80.030
EMP4	Crossover_4	1.0-rc12	20101001.113414	experimental	200	1	1	orientation	0.700000	1	0	0	present	1	425	80.029
EMP4	Crossover_4	1.0-rc12	20101001.113506	experimental	201	0	1	2v5	0.400000	1	0	0	absent	1	1057	80.032
EMP4	Crossover_4	1.0-rc12	20101001.113510	experimental	202	0	2	orientation	0.700000	1	0	0	absent	1	941	80.024
EMP4	Crossover_4	1.0-rc12	20101001.113514	experimental	203	0	2	2v5	0.400000	1	0	0	absent	1	515	80.023
EMP4	Crossover_4	1.0-rc12	20101001.113518	experimental	204	1	4	2v5	0.400000	1	0	0	present	1	1008	80.023
EMP4	Crossover_4	1.0-rc12	20101001.113522	experimental	205	1	1	orientation	0.700000	1	0	0	present	1	1072	80.030
EMP4	Crossover_4	1.0-rc12	20101001.113526	experimental	206	1	8	2v5	0.400000	1	0	0	present	1	838	80.029
EMP4	Crossover_4	1.0-rc12	20101001.113530	experimental	207	1	2	orientation	0.700000	1	0	0	present	1	638	80.030
EMP4	Crossover_4	1.0-rc12	20101001.113533	experimental	208	1	4	2v5	0.400000	1	0	0	absent	0	563	80.020
EMP4	Crossover_4	1.0-rc12	20101001.113537	experimental	209	1	4	2v5	0.400000	1	0	0	present	1	555	80.027
EMP4	Crossover_4	1.0-rc12	20101001.113540	experimental	210	0	4	2v5	0.400000	1	0	0	absent	1	611	80.034
EMP4	Crossover_4	1.0-rc12	20101001.113544	experimental	211	1	2	orientation	0.700000	1	0	0	present	1	1010	80.030
EMP4	Crossover_4	1.0-rc12	20101001.113548	experimental	212	0	1	2v5	0.400000	1	0	0	absent	1	507	80.031
EMP4	Crossover_4	1.0-rc12	20101001.113552	experimental	213	0	2	2v5	0.400000	1	0	0	absent	1	996	80.023
EMP4	Crossover_4	1.0-rc12	20101001.113556	experimental	214	1	1	2v5	0.400000	1	0	0	present	1	879	80.029
EMP4	Crossover_4	1.0-rc12	20101001.113559	experimental	215	0	8	2v5	0.400000	1	0	0	absent	1	1320	80.029
EMP4	Crossover_4	1.0-rc12	20101001.113604	experimental	216	1	8	orientation	0.700000	1	0	0	present	1	459	80.018
EMP4	Crossover_4	1.0-rc12	20101001.113607	experimental	217	1	8	orientation	0.700000	1	0	0	present	1	411	80.036
EMP4	Crossover_4	1.0-rc12	20101001.113611	experimental	218	1	2	orientation	0.700000	1	0	0	absent	0	466	80.023
EMP4	Crossover_4	1.0-rc12	20101001.113614	experimental	219	1	1	2v5	0.400000	1	0	0	present	1	487	80.026
EMP4	Crossover_4	1.0-rc12	20101001.113618	experimental	220	1	1	2v5	0.400000	1	0	0	present	1	473	80.028
EMP4	Crossover_4	1.0-rc12	20101001.113621	experimental	221	1	1	orientation	0.700000	1	0	0	present	1	446	80.024
EMP4	Crossover_4	1.0-rc12	20101001.113625	experimental	222	0	8	2v5	0.400000	1	0	0	absent	1	1024	80.037
EMP4	Crossover_4	1.0-rc12	20101001.113629	experimental	223	0	1	2v5	0.400000	1	0	0	absent	1	604	80.029
EMP4	Crossover_4	1.0-rc12	20101001.113632	experimental	224	1	4	orientation	0.700000	1	0	0	present	1	480	80.030
EMP4	Crossover_4	1.0-rc12	20101001.113636	experimental	225	1	1	orientation	0.700000	1	0	0	present	1	459	80.031
EMP4	Crossover_4	1.0-rc12	20101001.113639	experimental	226	1	8	orientation	0.700000	1	0	0	present	1	528	80.030
EMP4	Crossover_4	1.0-rc12	20101001.113643	experimental	227	1	1	orientation	0.700000	1	0	0	present	1	454	80.021
EMP4	Crossover_4	1.0-rc12	20101001.113646	experimental	228	1	1	2v5	0.400000	1	0	0	present	1	459	80.029
EMP4	Crossover_4	1.0-rc12	20101001.113650	experimental	229	1	8	2v5	0.400000	1	0	0	present	1	1134	80.034
EMP4	Crossover_4	1.0-rc12	20101001.113654	experimental	230	1	2	2v5	0.400000	1	0	0	present	1	914	80.032
EMP4	Crossover_4	1.0-rc12	20101001.113658	experimental	231	1	4	orientation	0.700000	1	0	0	present	1	569	80.032
EMP4	Crossover_4	1.0-rc12	20101001.113701	experimental	232	1	8	orientation	0.700000	1	0	0	present	1	500	80.031
EMP4	Crossover_4	1.0-rc12	20101001.113705	experimental	233	0	1	orientation	0.700000	1	0	0	absent	1	624	80.031
EMP4	Crossover_4	1.0-rc12	20101001.113709	experimental	234	1	2	orientation	0.700000	1	0	0	present	1	425	80.030
EMP4	Crossover_4	1.0-rc12	20101001.113712	experimental	235	1	2	2v5	0.400000	1	0	0	present	1	804	80.026
EMP4	Crossover_4	1.0-rc12	20101001.113716	experimental	236	1	2	2v5	0.400000	1	0	0	present	1	1030	80.026
EMP4	Crossover_4	1.0-rc12	20101001.113720	experimental	237	1	2	2v5	0.400000	1	0	0	present	1	921	80.030
EMP4	Crossover_4	1.0-rc12	20101001.113724	experimental	238	0	1	2v5	0.400000	1	0	0	absent	1	707	80.023
EMP4	Crossover_4	1.0-rc12	20101001.113728	experimental	239	0	1	orientation	0.700000	1	0	0	absent	1	852	80.028
EMP4	Crossover_4	1.0-rc12	20101001.113732	experimental	240	0	1	2v5	0.400000	1	0	0	absent	1	734	80.036
EMP4	Crossover_4	1.0-rc12	20101001.113735	experimental	241	0	1	orientation	0.700000	1	0	0	absent	1	590	80.030
EMP4	Crossover_4	1.0-rc12	20101001.113739	experimental	242	0	1	2v5	0.400000	1	0	0	absent	1	976	80.033
EMP4	Crossover_4	1.0-rc12	20101001.113743	experimental	243	0	1	orientation	0.700000	1	0	0	absent	1	741	80.024
EMP4	Crossover_4	1.0-rc12	20101001.113747	experimental	244	0	8	2v5	0.400000	1	0	0	present	0	948	80.021
EMP4	Crossover_4	1.0-rc12	20101001.113751	experimental	245	0	8	2v5	0.400000	1	0	0	absent	1	851	80.029
EMP4	Crossover_4	1.0-rc12	20101001.113755	experimental	246	0	2	2v5	0.400000	1	0	0	absent	1	818	80.030
EMP4	Crossover_4	1.0-rc12	20101001.113759	experimental	247	1	1	orientation	0.700000	1	0	0	present	1	452	80.029
EMP4	Crossover_4	1.0-rc12	20101001.113802	experimental	248	0	1	2v5	0.400000	1	0	0	absent	1	507	80.032
EMP4	Crossover_4	1.0-rc12	20101001.113806	experimental	249	0	1	orientation	0.700000	1	0	0	absent	1	624	80.034
EMP4	Crossover_4	1.0-rc12	20101001.113809	experimental	250	1	4	2v5	0.400000	1	0	0	present	1	645	80.033
EMP4	Crossover_4	1.0-rc12	20101001.113904	experimental	251	1	2	2v5	0.400000	1	0	0	present	1	473	80.035
EMP4	Crossover_4	1.0-rc12	20101001.113907	experimental	252	0	2	2v5	0.400000	1	0	0	absent	1	968	80.036
EMP4	Crossover_4	1.0-rc12	20101001.113911	experimental	253	0	8	2v5	0.400000	1	0	0	present	0	1024	80.023
EMP4	Crossover_4	1.0-rc12	20101001.113915	experimental	254	1	4	orientation	0.700000	1	0	0	present	1	825	80.024
EMP4	Crossover_4	1.0-rc12	20101001.113919	experimental	255	1	4	orientation	0.700000	1	0	0	present	1	432	80.027
EMP4	Crossover_4	1.0-rc12	20101001.113923	experimental	256	0	1	2v5	0.400000	1	0	0	absent	1	735	80.030
EMP4	Crossover_4	1.0-rc12	20101001.113926	experimental	257	1	1	2v5	0.400000	1	0	0	present	1	459	80.021
EMP4	Crossover_4	1.0-rc12	20101001.113930	experimental	258	0	8	2v5	0.400000	1	0	0	absent	1	535	80.033
EMP4	Crossover_4	1.0-rc12	20101001.113933	experimental	259	1	2	orientation	0.700000	1	0	0	present	1	446	80.031
EMP4	Crossover_4	1.0-rc12	20101001.113937	experimental	260	1	4	2v5	0.400000	1	0	0	present	1	645	80.038
EMP4	Crossover_4	1.0-rc12	20101001.113940	experimental	261	0	2	2v5	0.400000	1	0	0	absent	1	659	80.028
EMP4	Crossover_4	1.0-rc12	20101001.113944	experimental	262	0	2	2v5	0.400000	1	0	0	absent	1	528	80.036
EMP4	Crossover_4	1.0-rc12	20101001.113948	experimental	263	0	8	orientation	0.700000	1	0	0	present	0	500	80.037
EMP4	Crossover_4	1.0-rc12	20101001.113951	experimental	264	1	1	orientation	0.700000	1	0	0	present	1	934	80.037
EMP4	Crossover_4	1.0-rc12	20101001.113955	experimental	265	0	4	orientation	0.700000	1	0	0	absent	1	597	80.019
EMP4	Crossover_4	1.0-rc12	20101001.113959	experimental	266	1	8	2v5	0.400000	1	0	0	present	1	507	80.023
EMP4	Crossover_4	1.0-rc12	20101001.114002	experimental	267	1	1	orientation	0.700000	1	0	0	present	1	555	80.027
EMP4	Crossover_4	1.0-rc12	20101001.114006	experimental	268	0	8	orientation	0.700000	1	0	0	absent	1	652	80.036
EMP4	Crossover_4	1.0-rc12	20101001.114010	experimental	269	1	2	2v5	0.400000	1	0	0	present	1	562	80.020
EMP4	Crossover_4	1.0-rc12	20101001.114013	experimental	270	0	8	orientation	0.700000	1	0	0	absent	1	618	80.039
EMP4	Crossover_4	1.0-rc12	20101001.114017	experimental	271	0	1	orientation	0.700000	1	0	0	absent	1	500	80.028
EMP4	Crossover_4	1.0-rc12	20101001.114020	experimental	272	1	8	orientation	0.700000	1	0	0	present	1	549	80.028
EMP4	Crossover_4	1.0-rc12	20101001.114024	experimental	273	1	1	orientation	0.700000	1	0	0	present	1	590	80.029
EMP4	Crossover_4	1.0-rc12	20101001.114028	experimental	274	0	8	2v5	0.400000	1	0	0	absent	1	713	80.025
EMP4	Crossover_4	1.0-rc12	20101001.114031	experimental	275	1	8	orientation	0.700000	1	0	0	present	1	452	80.029
EMP4	Crossover_4	1.0-rc12	20101001.114035	experimental	276	0	2	orientation	0.700000	1	0	0	absent	1	569	80.030
EMP4	Crossover_4	1.0-rc12	20101001.114039	experimental	277	1	8	2v5	0.400000	1	0	0	present	1	714	80.023
EMP4	Crossover_4	1.0-rc12	20101001.114042	experimental	278	0	2	orientation	0.700000	1	0	0	absent	1	528	80.029
EMP4	Crossover_4	1.0-rc12	20101001.114046	experimental	279	0	2	orientation	0.700000	1	0	0	absent	1	480	80.022
EMP4	Crossover_4	1.0-rc12	20101001.114050	experimental	280	0	1	2v5	0.400000	1	0	0	absent	1	590	80.039
EMP4	Crossover_4	1.0-rc12	20101001.114053	experimental	281	1	1	orientation	0.700000	1	0	0	present	1	1182	80.032
EMP4	Crossover_4	1.0-rc12	20101001.114057	experimental	282	1	4	orientation	0.700000	1	0	0	absent	0	899	80.027
EMP4	Crossover_4	1.0-rc12	20101001.114101	experimental	283	0	8	orientation	0.700000	1	0	0	absent	1	494	80.022
EMP4	Crossover_4	1.0-rc12	20101001.114105	experimental	284	0	2	orientation	0.700000	1	0	0	absent	1	466	80.029
EMP4	Crossover_4	1.0-rc12	20101001.114108	experimental	285	0	8	2v5	0.400000	1	0	0	absent	1	817	80.037
EMP4	Crossover_4	1.0-rc12	20101001.114112	experimental	286	0	4	orientation	0.700000	1	0	0	present	0	1037	80.028
EMP4	Crossover_4	1.0-rc12	20101001.114116	experimental	287	1	2	2v5	0.400000	1	0	0	present	1	1023	80.029
EMP4	Crossover_4	1.0-rc12	20101001.114120	experimental	288	0	4	2v5	0.400000	1	0	0	absent	1	1264	80.031
EMP4	Crossover_4	1.0-rc12	20101001.114124	experimental	289	1	1	2v5	0.400000	1	0	0	present	1	418	80.032
EMP4	Crossover_4	1.0-rc12	20101001.114128	experimental	290	0	1	orientation	0.700000	1	0	0	absent	1	542	80.023
EMP4	Crossover_4	1.0-rc12	20101001.114132	experimental	291	0	1	orientation	0.700000	1	0	0	absent	1	507	80.025
EMP4	Crossover_4	1.0-rc12	20101001.114135	experimental	292	1	8	orientation	0.700000	1	0	0	absent	0	528	80.030
EMP4	Crossover_4	1.0-rc12	20101001.114139	experimental	293	1	4	2v5	0.400000	1	0	0	present	1	1113	80.028
EMP4	Crossover_4	1.0-rc12	20101001.114143	experimental	294	1	8	2v5	0.400000	1	0	0	present	1	541	80.028
EMP4	Crossover_4	1.0-rc12	20101001.114146	experimental	295	1	4	2v5	0.400000	1	0	0	present	1	535	80.034
EMP4	Crossover_4	1.0-rc12	20101001.114150	experimental	296	1	4	orientation	0.700000	1	0	0	present	1	500	80.019
EMP4	Crossover_4	1.0-rc12	20101001.114154	experimental	297	0	2	orientation	0.700000	1	0	0	absent	1	501	80.034
EMP4	Crossover_4	1.0-rc12	20101001.114157	experimental	298	0	2	2v5	0.400000	1	0	0	absent	1	596	80.034
EMP4	Crossover_4	1.0-rc12	20101001.114201	experimental	299	1	1	orientation	0.700000	1	0	0	present	1	452	80.018
EMP4	Crossover_4	1.0-rc12	20101001.114204	experimental	300	1	2	orientation	0.700000	1	0	0	present	1	438	80.027
EMP4	Crossover_4	1.0-rc12	20101001.114212	experimental	301	0	4	orientation	0.700000	1	0	0	absent	1	522	80.026
EMP4	Crossover_4	1.0-rc12	20101001.114216	experimental	302	0	1	2v5	0.400000	1	0	0	absent	1	514	80.024
EMP4	Crossover_4	1.0-rc12	20101001.114219	experimental	303	0	4	orientation	0.700000	1	0	0	absent	1	535	80.036
EMP4	Crossover_4	1.0-rc12	20101001.114223	experimental	304	1	2	2v5	0.400000	1	0	0	present	1	473	80.026
EMP4	Crossover_4	1.0-rc12	20101001.114226	experimental	305	1	4	2v5	0.400000	1	0	0	present	1	714	80.026
EMP4	Crossover_4	1.0-rc12	20101001.114230	experimental	306	1	8	orientation	0.700000	1	0	0	present	1	480	80.031
EMP4	Crossover_4	1.0-rc12	20101001.114234	experimental	307	0	1	orientation	0.700000	1	0	0	40	-3	1010	80.029
EMP4	Crossover_4	1.0-rc12	20101001.114238	experimental	308	1	2	2v5	0.400000	1	0	0	absent	0	597	80.024
EMP4	Crossover_4	1.0-rc12	20101001.114241	experimental	309	1	8	orientation	0.700000	1	0	0	present	1	679	80.036
EMP4	Crossover_4	1.0-rc12	20101001.114245	experimental	310	0	8	orientation	0.700000	1	0	0	absent	1	555	80.035
EMP4	Crossover_4	1.0-rc12	20101001.114249	experimental	311	1	4	orientation	0.700000	1	0	0	present	1	439	80.032
EMP4	Crossover_4	1.0-rc12	20101001.114252	experimental	312	0	8	2v5	0.400000	1	0	0	absent	1	954	80.036
EMP4	Crossover_4	1.0-rc12	20101001.114256	experimental	313	1	4	orientation	0.700000	1	0	0	present	1	452	80.030
EMP4	Crossover_4	1.0-rc12	20101001.114300	experimental	314	1	8	orientation	0.700000	1	0	0	present	1	494	80.038
EMP4	Crossover_4	1.0-rc12	20101001.114303	experimental	315	1	1	orientation	0.700000	1	0	0	present	1	659	80.034
EMP4	Crossover_4	1.0-rc12	20101001.114307	experimental	316	1	2	orientation	0.700000	1	0	0	present	1	480	80.023
EMP4	Crossover_4	1.0-rc12	20101001.114310	experimental	317	0	1	orientation	0.700000	1	0	0	absent	1	493	80.024
EMP4	Crossover_4	1.0-rc12	20101001.114314	experimental	318	1	8	orientation	0.700000	1	0	0	absent	0	1025	80.029
EMP4	Crossover_4	1.0-rc12	20101001.114318	experimental	319	0	4	2v5	0.400000	1	0	0	present	0	1100	80.030
EMP4	Crossover_4	1.0-rc12	20101001.114322	experimental	320	0	4	orientation	0.700000	1	0	0	absent	1	1369	80.040
EMP4	Crossover_4	1.0-rc12	20101001.114327	experimental	321	1	8	2v5	0.400000	1	0	0	present	1	1017	80.032
EMP4	Crossover_4	1.0-rc12	20101001.114331	experimental	322	0	8	2v5	0.400000	1	0	0	present	0	1093	80.031
EMP4	Crossover_4	1.0-rc12	20101001.114335	experimental	323	0	2	2v5	0.400000	1	0	0	absent	1	555	80.028
EMP4	Crossover_4	1.0-rc12	20101001.114338	experimental	324	0	8	2v5	0.400000	1	0	0	absent	1	632	80.029
EMP4	Crossover_4	1.0-rc12	20101001.114342	experimental	325	0	2	orientation	0.700000	1	0	0	absent	1	521	80.031
EMP4	Crossover_4	1.0-rc12	20101001.114346	experimental	326	1	4	2v5	0.400000	1	0	0	absent	0	693	80.024
EMP4	Crossover_4	1.0-rc12	20101001.114349	experimental	327	1	8	orientation	0.700000	1	0	0	present	1	590	80.032
EMP4	Crossover_4	1.0-rc12	20101001.114353	experimental	328	0	4	orientation	0.700000	1	0	0	absent	1	749	80.027
EMP4	Crossover_4	1.0-rc12	20101001.114357	experimental	329	1	8	2v5	0.400000	1	0	0	present	1	838	80.021
EMP4	Crossover_4	1.0-rc12	20101001.114401	experimental	330	0	4	2v5	0.400000	1	0	0	absent	1	755	80.028
EMP4	Crossover_4	1.0-rc12	20101001.114404	experimental	331	0	8	orientation	0.700000	1	0	0	present	0	748	80.031
EMP4	Crossover_4	1.0-rc12	20101001.114408	experimental	332	0	8	orientation	0.700000	1	0	0	absent	1	556	80.028
EMP4	Crossover_4	1.0-rc12	20101001.114412	experimental	333	0	2	orientation	0.700000	1	0	0	absent	1	542	80.035
EMP4	Crossover_4	1.0-rc12	20101001.114415	experimental	334	1	2	orientation	0.700000	1	0	0	present	1	1072	80.028
EMP4	Crossover_4	1.0-rc12	20101001.114419	experimental	335	0	1	2v5	0.400000	1	0	0	absent	1	1016	80.032
EMP4	Crossover_4	1.0-rc12	20101001.114423	experimental	336	1	2	orientation	0.700000	1	0	0	present	1	467	80.024
EMP4	Crossover_4	1.0-rc12	20101001.114427	experimental	337	0	2	orientation	0.700000	1	0	0	present	0	810	80.032
EMP4	Crossover_4	1.0-rc12	20101001.114431	experimental	338	0	4	2v5	0.400000	1	0	0	absent	1	700	80.028
EMP4	Crossover_4	1.0-rc12	20101001.114435	experimental	339	0	8	2v5	0.400000	1	0	0	absent	1	693	80.028
EMP4	Crossover_4	1.0-rc12	20101001.114438	experimental	340	1	8	2v5	0.400000	1	0	0	absent	0	1362	80.031
EMP4	Crossover_4	1.0-rc12	20101001.114443	experimental	341	0	8	2v5	0.400000	1	0	0	absent	1	755	80.023
EMP4	Crossover_4	1.0-rc12	20101001.114446	experimental	342	1	2	2v5	0.400000	1	0	0	present	1	851	80.028
EMP4	Crossover_4	1.0-rc12	20101001.114450	experimental	343	0	1	orientation	0.700000	1	0	0	absent	1	762	80.030
EMP4	Crossover_4	1.0-rc12	20101001.114454	experimental	344	1	4	orientation	0.700000	1	0	0	present	1	480	80.030
EMP4	Crossover_4	1.0-rc12	20101001.114458	experimental	345	0	8	orientation	0.700000	1	0	0	absent	1	514	80.023
EMP4	Crossover_4	1.0-rc12	20101001.114501	experimental	346	0	4	2v5	0.400000	1	0	0	absent	1	735	80.039
EMP4	Crossover_4	1.0-rc12	20101001.114505	experimental	347	0	1	orientation	0.700000	1	0	0	absent	1	598	80.030
EMP4	Crossover_4	1.0-rc12	20101001.114509	experimental	348	1	1	orientation	0.700000	1	0	0	present	1	459	80.025
EMP4	Crossover_4	1.0-rc12	20101001.114512	experimental	349	1	2	orientation	0.700000	1	0	0	present	1	514	80.030
EMP4	Crossover_4	1.0-rc12	20101001.114516	experimental	350	0	8	orientation	0.700000	1	0	0	absent	1	625	80.029
EMP4	Crossover_4	1.0-rc12	20101001.114541	experimental	351	0	2	orientation	0.700000	1	0	0	absent	1	500	80.027
EMP4	Crossover_4	1.0-rc12	20101001.114544	experimental	352	1	4	orientation	0.700000	1	0	0	present	1	508	80.035
EMP4	Crossover_4	1.0-rc12	20101001.114548	experimental	353	1	2	orientation	0.700000	1	0	0	present	1	1644	80.026
EMP4	Crossover_4	1.0-rc12	20101001.114552	experimental	354	0	2	2v5	0.400000	1	0	0	absent	1	597	80.028
EMP4	Crossover_4	1.0-rc12	20101001.114556	experimental	355	1	2	orientation	0.700000	1	0	0	present	1	480	80.029
EMP4	Crossover_4	1.0-rc12	20101001.114600	experimental	356	1	4	2v5	0.400000	1	0	0	absent	0	569	80.029
EMP4	Crossover_4	1.0-rc12	20101001.114603	experimental	357	1	8	2v5	0.400000	1	0	0	present	1	680	80.022
EMP4	Crossover_4	1.0-rc12	20101001.114607	experimental	358	0	2	2v5	0.400000	1	0	0	absent	1	803	80.032
EMP4	Crossover_4	1.0-rc12	20101001.114611	experimental	359	1	4	orientation	0.700000	1	0	0	present	1	618	80.021
EMP4	Crossover_4	1.0-rc12	20101001.114614	experimental	360	1	1	orientation	0.700000	1	0	0	present	1	438	80.032
EMP4	Crossover_4	1.0-rc12	20101001.114618	experimental	361	0	2	2v5	0.400000	1	0	0	absent	1	493	80.039
EMP4	Crossover_4	1.0-rc12	20101001.114621	experimental	362	0	8	2v5	0.400000	1	0	0	absent	1	604	80.022
EMP4	Crossover_4	1.0-rc12	20101001.114625	experimental	363	0	1	2v5	0.400000	1	0	0	absent	1	631	80.032
EMP4	Crossover_4	1.0-rc12	20101001.114629	experimental	364	1	4	2v5	0.400000	1	0	0	absent	0	1004	80.033
EMP4	Crossover_4	1.0-rc12	20101001.114633	experimental	365	1	1	2v5	0.400000	1	0	0	present	1	480	80.030
EMP4	Crossover_4	1.0-rc12	20101001.114636	experimental	366	1	4	orientation	0.700000	1	0	0	present	1	446	80.034
EMP4	Crossover_4	1.0-rc12	20101001.114640	experimental	367	0	2	2v5	0.400000	1	0	0	present	0	1195	80.029
EMP4	Crossover_4	1.0-rc12	20101001.114644	experimental	368	1	2	2v5	0.400000	1	0	0	present	1	473	80.037
EMP4	Crossover_4	1.0-rc12	20101001.114647	experimental	369	1	4	orientation	0.700000	1	0	0	present	1	990	80.028
EMP4	Crossover_4	1.0-rc12	20101001.114652	experimental	370	0	8	orientation	0.700000	1	0	0	absent	1	831	80.021
EMP4	Crossover_4	1.0-rc12	20101001.114655	experimental	371	1	2	orientation	0.700000	1	0	0	present	1	432	80.035
EMP4	Crossover_4	1.0-rc12	20101001.114659	experimental	372	1	1	2v5	0.400000	1	0	0	present	1	549	80.032
EMP4	Crossover_4	1.0-rc12	20101001.114702	experimental	373	1	2	2v5	0.400000	1	0	0	present	1	542	80.020
EMP4	Crossover_4	1.0-rc12	20101001.114706	experimental	374	1	2	2v5	0.400000	1	0	0	present	1	445	80.033
EMP4	Crossover_4	1.0-rc12	20101001.114709	experimental	375	0	1	2v5	0.400000	1	0	0	absent	1	500	80.028
EMP4	Crossover_4	1.0-rc12	20101001.114713	experimental	376	1	2	2v5	0.400000	1	0	0	present	1	604	80.030
EMP4	Crossover_4	1.0-rc12	20101001.114717	experimental	377	0	8	2v5	0.400000	1	0	0	absent	1	611	80.025
EMP4	Crossover_4	1.0-rc12	20101001.114720	experimental	378	1	1	orientation	0.700000	1	0	0	present	1	494	80.027
EMP4	Crossover_4	1.0-rc12	20101001.114724	experimental	379	0	4	2v5	0.400000	1	0	0	absent	1	666	80.030
EMP4	Crossover_4	1.0-rc12	20101001.114728	experimental	380	0	8	2v5	0.400000	1	0	0	absent	1	611	80.037
EMP4	Crossover_4	1.0-rc12	20101001.114731	experimental	381	0	8	2v5	0.400000	1	0	0	absent	1	913	80.034
EMP4	Crossover_4	1.0-rc12	20101001.114735	experimental	382	0	4	orientation	0.700000	1	0	0	absent	1	1127	80.035
EMP4	Crossover_4	1.0-rc12	20101001.114739	experimental	383	1	8	orientation	0.700000	1	0	0	present	1	535	80.027
EMP4	Crossover_4	1.0-rc12	20101001.114743	experimental	384	0	1	orientation	0.700000	1	0	0	absent	1	583	80.031
EMP4	Crossover_4	1.0-rc12	20101001.114747	experimental	385	0	4	2v5	0.400000	1	0	0	present	0	1636	80.025
EMP4	Crossover_4	1.0-rc12	20101001.114751	experimental	386	1	4	2v5	0.400000	1	0	0	present	1	584	80.034
EMP4	Crossover_4	1.0-rc12	20101001.114755	experimental	387	0	1	2v5	0.400000	1	0	0	absent	1	1141	80.030
EMP4	Crossover_4	1.0-rc12	20101001.114759	experimental	388	1	8	orientation	0.700000	1	0	0	present	1	949	80.026
EMP4	Crossover_4	1.0-rc12	20101001.114803	experimental	389	0	4	orientation	0.700000	1	0	0	absent	1	570	80.027
EMP4	Crossover_4	1.0-rc12	20101001.114807	experimental	390	1	8	orientation	0.700000	1	0	0	absent	0	542	80.032
EMP4	Crossover_4	1.0-rc12	20101001.114810	experimental	391	0	4	2v5	0.400000	1	0	0	present	0	899	80.030
EMP4	Crossover_4	1.0-rc12	20101001.114814	experimental	392	1	8	2v5	0.400000	1	0	0	absent	0	611	80.036
EMP4	Crossover_4	1.0-rc12	20101001.114818	experimental	393	1	2	orientation	0.700000	1	0	0	present	1	390	80.021
EMP4	Crossover_4	1.0-rc12	20101001.114821	experimental	394	1	4	2v5	0.400000	1	0	0	present	1	603	80.040
EMP4	Crossover_4	1.0-rc12	20101001.114825	experimental	395	0	2	2v5	0.400000	1	0	0	absent	1	541	80.027
EMP4	Crossover_4	1.0-rc12	20101001.114828	experimental	396	0	8	orientation	0.700000	1	0	0	absent	1	728	80.035
EMP4	Crossover_4	1.0-rc12	20101001.114832	experimental	397	1	1	orientation	0.700000	1	0	0	absent	0	507	80.037
EMP4	Crossover_4	1.0-rc12	20101001.114836	experimental	398	0	2	orientation	0.700000	1	0	0	absent	1	508	80.036
EMP4	Crossover_4	1.0-rc12	20101001.114839	experimental	399	1	1	2v5	0.400000	1	0	0	present	1	748	80.025
EMP4	Crossover_4	1.0-rc12	20101001.114843	experimental	400	1	4	orientation	0.700000	1	0	0	present	1	624	80.038
EMP4	Crossover_4	1.0-rc12	20101001.132316	practice	1	1	4	2v5	0.400000	1	0	0	present	1	694	80.027
EMP4	Crossover_4	1.0-rc12	20101001.132320	practice	2	0	2	orientation	0.700000	1	0	0	absent	1	459	80.025
EMP4	Crossover_4	1.0-rc12	20101001.132323	practice	3	1	2	orientation	0.700000	1	0	0	present	1	404	80.034
EMP4	Crossover_4	1.0-rc12	20101001.132327	practice	4	1	2	2v5	0.400000	1	0	0	present	1	913	80.036
EMP4	Crossover_4	1.0-rc12	20101001.132331	practice	5	1	4	orientation	0.700000	1	0	0	present	1	569	80.036
EMP4	Crossover_4	1.0-rc12	20101001.132334	practice	6	0	4	2v5	0.400000	1	0	0	present	0	583	80.031
EMP4	Crossover_4	1.0-rc12	20101001.132338	practice	7	1	2	2v5	0.400000	1	0	0	present	1	755	80.036
EMP4	Crossover_4	1.0-rc12	20101001.132341	practice	8	1	8	orientation	0.700000	1	0	0	absent	0	480	80.031
EMP4	Crossover_4	1.0-rc12	20101001.132345	practice	9	0	2	orientation	0.700000	1	0	0	absent	1	597	80.028
EMP4	Crossover_4	1.0-rc12	20101001.132349	practice	10	1	1	orientation	0.700000	1	0	0	present	1	487	80.031
EMP4	Crossover_4	1.0-rc12	20101001.132352	practice	11	1	4	2v5	0.400000	1	0	0	present	1	542	80.035
EMP4	Crossover_4	1.0-rc12	20101001.132356	practice	12	0	4	orientation	0.700000	1	0	0	present	0	652	80.028
EMP4	Crossover_4	1.0-rc12	20101001.132359	practice	13	0	4	2v5	0.400000	1	0	0	absent	1	597	80.033
EMP4	Crossover_4	1.0-rc12	20101001.132403	practice	14	1	2	2v5	0.400000	1	0	0	present	1	540	80.031
EMP4	Crossover_4	1.0-rc12	20101001.132406	practice	15	0	4	orientation	0.700000	1	0	0	absent	1	563	80.026
EMP4	Crossover_4	1.0-rc12	20101001.132410	practice	16	0	2	orientation	0.700000	1	0	0	absent	1	707	80.026
EMP4	Crossover_4	1.0-rc12	20101001.132414	practice	17	1	8	2v5	0.400000	1	0	0	present	1	494	80.028
EMP4	Crossover_4	1.0-rc12	20101001.132417	practice	18	1	8	orientation	0.700000	1	0	0	absent	0	583	80.027
EMP4	Crossover_4	1.0-rc12	20101001.132421	practice	19	1	1	orientation	0.700000	1	0	0	present	1	342	80.034
EMP4	Crossover_4	1.0-rc12	20101001.132424	practice	20	1	1	2v5	0.400000	1	0	0	present	1	473	80.031
EMP4	Crossover_4	1.0-rc12	20101001.132428	practice	21	1	1	2v5	0.400000	1	0	0	present	1	487	80.027
EMP4	Crossover_4	1.0-rc12	20101001.132431	practice	22	1	2	orientation	0.700000	1	0	0	present	1	432	80.021
EMP4	Crossover_4	1.0-rc12	20101001.132435	practice	23	1	4	orientation	0.700000	1	0	0	absent	0	618	80.035
EMP4	Crossover_4	1.0-rc12	20101001.132438	practice	24	0	8	2v5	0.400000	1	0	0	absent	1	1237	80.024
EMP4	Crossover_4	1.0-rc12	20101001.132443	practice	25	0	8	2v5	0.400000	1	0	0	absent	1	1437	80.023
EMP4	Crossover_4	1.0-rc12	20101001.132447	practice	26	1	1	2v5	0.400000	1	0	0	present	1	824	80.026
EMP4	Crossover_4	1.0-rc12	20101001.132451	practice	27	0	1	2v5	0.400000	1	0	0	absent	1	549	80.033
EMP4	Crossover_4	1.0-rc12	20101001.132454	practice	28	0	4	2v5	0.400000	1	0	0	absent	1	563	80.029
EMP4	Crossover_4	1.0-rc12	20101001.132458	practice	29	0	2	2v5	0.400000	1	0	0	absent	1	466	80.030
EMP4	Crossover_4	1.0-rc12	20101001.132501	practice	30	0	8	2v5	0.400000	1	0	0	absent	1	741	80.034
EMP4	Crossover_4	1.0-rc12	20101001.132505	practice	31	0	1	2v5	0.400000	1	0	0	absent	1	480	80.027
EMP4	Crossover_4	1.0-rc12	20101001.132509	practice	32	1	1	orientation	0.700000	1	0	0	present	1	418	80.033
EMP4	Crossover_4	1.0-rc12	20101001.132512	practice	33	1	4	2v5	0.400000	1	0	0	present	1	480	80.027
EMP4	Crossover_4	1.0-rc12	20101001.132516	practice	34	1	8	2v5	0.400000	1	0	0	absent	0	790	80.030
EMP4	Crossover_4	1.0-rc12	20101001.132519	practice	35	0	8	orientation	0.700000	1	0	0	absent	1	824	80.032
EMP4	Crossover_4	1.0-rc12	20101001.132523	practice	36	1	4	orientation	0.700000	1	0	0	present	1	507	80.027
EMP4	Crossover_4	1.0-rc12	20101001.132527	practice	37	0	1	orientation	0.700000	1	0	0	absent	1	432	80.031
EMP4	Crossover_4	1.0-rc12	20101001.132530	practice	38	0	8	orientation	0.700000	1	0	0	absent	1	466	80.028
EMP4	Crossover_4	1.0-rc12	20101001.132534	practice	39	0	2	2v5	0.400000	1	0	0	present	0	466	80.027
EMP4	Crossover_4	1.0-rc12	20101001.132537	practice	40	1	8	2v5	0.400000	1	0	0	present	1	576	80.027
EMP4	Crossover_4	1.0-rc12	20101001.132541	practice	41	0	1	orientation	0.700000	1	0	0	absent	1	501	80.025
EMP4	Crossover_4	1.0-rc12	20101001.132544	practice	42	0	1	orientation	0.700000	1	0	0	absent	1	487	80.029
EMP4	Crossover_4	1.0-rc12	20101001.132548	practice	43	1	8	orientation	0.700000	1	0	0	present	1	397	80.027
EMP4	Crossover_4	1.0-rc12	20101001.132551	practice	44	1	4	orientation	0.700000	1	0	0	absent	0	769	80.035
EMP4	Crossover_4	1.0-rc12	20101001.132555	practice	45	0	8	orientation	0.700000	1	0	0	absent	1	500	80.038
