Subject	Code	Version	Timestamp	Block	Trial	Target	SetSize	StimSet	Noise	Precue	StairTrack	Reversal	Response	Accuracy	RT	ActualExpDur
ams2	Crossover_4	1.0-rc12	20101026.110233	practice	1	1	2	2v5	0.100000	1	0	0	present	1	592	79.999
ams2	Crossover_4	1.0-rc12	20101026.110237	practice	2	0	8	2v5	0.100000	1	0	0	absent	1	908	80.001
ams2	Crossover_4	1.0-rc12	20101026.110241	practice	3	1	1	2v5	0.100000	1	0	0	present	1	595	79.995
ams2	Crossover_4	1.0-rc12	20101026.110245	practice	4	0	4	2v5	0.100000	1	0	0	absent	1	691	80.000
ams2	Crossover_4	1.0-rc12	20101026.110248	practice	5	1	8	2v5	0.100000	1	0	0	present	1	665	80.011
ams2	Crossover_4	1.0-rc12	20101026.110252	practice	6	0	1	2v5	0.100000	1	0	0	absent	1	521	80.012
ams2	Crossover_4	1.0-rc12	20101026.110256	practice	7	0	8	orientation	0.700000	1	0	0	absent	1	670	80.005
ams2	Crossover_4	1.0-rc12	20101026.110300	practice	8	0	2	orientation	0.700000	1	0	0	absent	1	577	80.009
ams2	Crossover_4	1.0-rc12	20101026.110303	practice	9	1	1	orientation	0.700000	1	0	0	present	1	506	80.006
ams2	Crossover_4	1.0-rc12	20101026.110307	practice	10	1	2	orientation	0.700000	1	0	0	present	1	642	80.018
ams2	Crossover_4	1.0-rc12	20101026.110311	experimental	1	0	4	2v5	0.100000	1	0	0	absent	1	537	80.006
ams2	Crossover_4	1.0-rc12	20101026.110315	experimental	2	1	8	2v5	0.100000	1	0	0	absent	0	544	80.010
ams2	Crossover_4	1.0-rc12	20101026.110318	experimental	3	0	4	2v5	0.100000	1	0	0	absent	1	530	80.012
ams2	Crossover_4	1.0-rc12	20101026.110322	experimental	4	1	4	2v5	0.100000	1	0	0	present	1	654	80.010
ams2	Crossover_4	1.0-rc12	20101026.110326	experimental	5	1	8	orientation	0.700000	1	0	0	present	1	525	80.007
ams2	Crossover_4	1.0-rc12	20101026.110329	experimental	6	0	4	2v5	0.100000	1	0	0	absent	1	638	80.017
ams2	Crossover_4	1.0-rc12	20101026.110333	experimental	7	1	2	orientation	0.700000	1	0	0	present	1	653	80.015
ams2	Crossover_4	1.0-rc12	20101026.110337	experimental	8	1	1	2v5	0.100000	1	0	0	present	1	451	80.011
ams2	Crossover_4	1.0-rc12	20101026.110341	experimental	9	1	1	orientation	0.700000	1	0	0	present	1	477	80.009
ams2	Crossover_4	1.0-rc12	20101026.110344	experimental	10	0	1	orientation	0.700000	1	0	0	absent	1	621	80.001
ams2	Crossover_4	1.0-rc12	20101026.110348	experimental	11	0	2	orientation	0.700000	1	0	0	absent	1	557	80.005
ams2	Crossover_4	1.0-rc12	20101026.110352	experimental	12	0	2	2v5	0.100000	1	0	0	absent	1	605	80.009
ams2	Crossover_4	1.0-rc12	20101026.110355	experimental	13	0	4	2v5	0.100000	1	0	0	present	0	673	80.014
ams2	Crossover_4	1.0-rc12	20101026.110359	experimental	14	1	4	2v5	0.100000	1	0	0	absent	0	756	80.008
ams2	Crossover_4	1.0-rc12	20101026.110403	experimental	15	1	4	orientation	0.700000	1	0	0	present	1	487	80.007
ams2	Crossover_4	1.0-rc12	20101026.110407	experimental	16	0	1	2v5	0.100000	1	0	0	absent	1	478	80.013
ams2	Crossover_4	1.0-rc12	20101026.110410	experimental	17	0	1	2v5	0.100000	1	0	0	absent	1	534	80.011
ams2	Crossover_4	1.0-rc12	20101026.110414	experimental	18	0	8	2v5	0.100000	1	0	0	present	0	1014	80.011
ams2	Crossover_4	1.0-rc12	20101026.110418	experimental	19	0	1	2v5	0.100000	1	0	0	absent	1	493	80.009
ams2	Crossover_4	1.0-rc12	20101026.110422	experimental	20	0	8	orientation	0.700000	1	0	0	absent	1	738	79.997
ams2	Crossover_4	1.0-rc12	20101026.110425	experimental	21	1	8	2v5	0.100000	1	0	0	present	1	639	80.014
ams2	Crossover_4	1.0-rc12	20101026.110429	experimental	22	1	1	2v5	0.100000	1	0	0	present	1	436	80.006
ams2	Crossover_4	1.0-rc12	20101026.110433	experimental	23	0	2	2v5	0.100000	1	0	0	absent	1	844	80.010
ams2	Crossover_4	1.0-rc12	20101026.110437	experimental	24	0	2	orientation	0.700000	1	0	0	absent	1	561	80.018
ams2	Crossover_4	1.0-rc12	20101026.110440	experimental	25	1	8	2v5	0.100000	1	0	0	present	1	631	79.999
ams2	Crossover_4	1.0-rc12	20101026.110444	experimental	26	1	8	2v5	0.100000	1	0	0	absent	0	910	80.006
ams2	Crossover_4	1.0-rc12	20101026.110448	experimental	27	1	2	orientation	0.700000	1	0	0	absent	0	572	79.993
ams2	Crossover_4	1.0-rc12	20101026.110452	experimental	28	1	1	orientation	0.700000	1	0	0	present	1	469	80.004
ams2	Crossover_4	1.0-rc12	20101026.110456	experimental	29	0	1	2v5	0.100000	1	0	0	absent	1	469	80.004
ams2	Crossover_4	1.0-rc12	20101026.110459	experimental	30	1	8	2v5	0.100000	1	0	0	present	1	950	80.001
ams2	Crossover_4	1.0-rc12	20101026.110503	experimental	31	0	4	2v5	0.100000	1	0	0	absent	1	740	79.994
ams2	Crossover_4	1.0-rc12	20101026.110507	experimental	32	0	8	orientation	0.700000	1	0	0	present	0	696	80.014
ams2	Crossover_4	1.0-rc12	20101026.110511	experimental	33	0	2	2v5	0.100000	1	0	0	absent	1	571	80.004
ams2	Crossover_4	1.0-rc12	20101026.110515	experimental	34	1	4	2v5	0.100000	1	0	0	present	1	758	80.014
ams2	Crossover_4	1.0-rc12	20101026.110518	experimental	35	0	8	orientation	0.700000	1	0	0	absent	1	630	80.011
ams2	Crossover_4	1.0-rc12	20101026.110522	experimental	36	1	4	2v5	0.100000	1	0	0	present	1	529	79.999
ams2	Crossover_4	1.0-rc12	20101026.110526	experimental	37	0	8	orientation	0.700000	1	0	0	absent	1	694	80.001
ams2	Crossover_4	1.0-rc12	20101026.110530	experimental	38	1	8	orientation	0.700000	1	0	0	present	1	527	80.006
ams2	Crossover_4	1.0-rc12	20101026.110533	experimental	39	0	1	orientation	0.700000	1	0	0	absent	1	580	80.006
ams2	Crossover_4	1.0-rc12	20101026.110537	experimental	40	1	1	2v5	0.100000	1	0	0	present	1	560	80.016
ams2	Crossover_4	1.0-rc12	20101026.110618	experimental	41	1	4	orientation	0.700000	1	0	0	absent	0	721	80.005
ams2	Crossover_4	1.0-rc12	20101026.110622	experimental	42	0	4	2v5	0.100000	1	0	0	present	0	680	80.010
ams2	Crossover_4	1.0-rc12	20101026.110626	experimental	43	1	1	orientation	0.700000	1	0	0	present	1	545	80.007
ams2	Crossover_4	1.0-rc12	20101026.110629	experimental	44	1	2	orientation	0.700000	1	0	0	present	1	512	80.004
ams2	Crossover_4	1.0-rc12	20101026.110633	experimental	45	0	8	orientation	0.700000	1	0	0	absent	1	815	80.014
ams2	Crossover_4	1.0-rc12	20101026.110637	experimental	46	0	8	2v5	0.100000	1	0	0	present	0	936	80.013
ams2	Crossover_4	1.0-rc12	20101026.110641	experimental	47	0	2	orientation	0.700000	1	0	0	absent	1	714	80.003
ams2	Crossover_4	1.0-rc12	20101026.110645	experimental	48	0	4	orientation	0.700000	1	0	0	absent	1	605	80.011
ams2	Crossover_4	1.0-rc12	20101026.110648	experimental	49	0	8	2v5	0.100000	1	0	0	absent	1	904	80.007
ams2	Crossover_4	1.0-rc12	20101026.110652	experimental	50	0	2	2v5	0.100000	1	0	0	absent	1	1542	80.004
ams2	Crossover_4	1.0-rc12	20101026.110657	experimental	51	0	1	2v5	0.100000	1	0	0	absent	1	500	80.002
ams2	Crossover_4	1.0-rc12	20101026.110701	experimental	52	1	4	orientation	0.700000	1	0	0	present	1	527	80.014
ams2	Crossover_4	1.0-rc12	20101026.110704	experimental	53	1	2	2v5	0.100000	1	0	0	present	1	537	80.010
ams2	Crossover_4	1.0-rc12	20101026.110708	experimental	54	1	2	2v5	0.100000	1	0	0	present	1	631	80.003
ams2	Crossover_4	1.0-rc12	20101026.110712	experimental	55	0	4	2v5	0.100000	1	0	0	absent	1	766	80.002
ams2	Crossover_4	1.0-rc12	20101026.110716	experimental	56	1	4	2v5	0.100000	1	0	0	present	1	501	80.001
ams2	Crossover_4	1.0-rc12	20101026.110719	experimental	57	1	8	orientation	0.700000	1	0	0	absent	0	737	80.005
ams2	Crossover_4	1.0-rc12	20101026.110723	experimental	58	1	4	orientation	0.700000	1	0	0	present	1	513	80.006
ams2	Crossover_4	1.0-rc12	20101026.110727	experimental	59	0	1	orientation	0.700000	1	0	0	present	0	739	79.995
ams2	Crossover_4	1.0-rc12	20101026.110731	experimental	60	0	4	orientation	0.700000	1	0	0	absent	1	554	80.002
ams2	Crossover_4	1.0-rc12	20101026.110734	experimental	61	1	1	2v5	0.100000	1	0	0	present	1	478	80.007
ams2	Crossover_4	1.0-rc12	20101026.110738	experimental	62	1	1	orientation	0.700000	1	0	0	present	1	504	80.011
ams2	Crossover_4	1.0-rc12	20101026.110742	experimental	63	1	1	2v5	0.100000	1	0	0	present	1	461	80.008
ams2	Crossover_4	1.0-rc12	20101026.110745	experimental	64	1	4	orientation	0.700000	1	0	0	present	1	605	80.008
ams2	Crossover_4	1.0-rc12	20101026.110749	experimental	65	1	1	2v5	0.100000	1	0	0	present	1	478	80.010
ams2	Crossover_4	1.0-rc12	20101026.110753	experimental	66	0	1	orientation	0.700000	1	0	0	absent	1	486	80.010
ams2	Crossover_4	1.0-rc12	20101026.110756	experimental	67	1	4	orientation	0.700000	1	0	0	present	1	475	80.003
ams2	Crossover_4	1.0-rc12	20101026.110800	experimental	68	1	8	2v5	0.100000	1	0	0	present	1	514	80.007
ams2	Crossover_4	1.0-rc12	20101026.110803	experimental	69	1	2	2v5	0.100000	1	0	0	present	1	547	80.034
ams2	Crossover_4	1.0-rc12	20101026.110807	experimental	70	1	1	2v5	0.100000	1	0	0	present	1	435	80.005
ams2	Crossover_4	1.0-rc12	20101026.110811	experimental	71	1	1	orientation	0.700000	1	0	0	present	1	460	80.005
ams2	Crossover_4	1.0-rc12	20101026.110814	experimental	72	1	1	orientation	0.700000	1	0	0	present	1	428	80.003
ams2	Crossover_4	1.0-rc12	20101026.110818	experimental	73	1	8	2v5	0.100000	1	0	0	absent	0	2084	79.996
ams2	Crossover_4	1.0-rc12	20101026.110823	experimental	74	1	2	2v5	0.100000	1	0	0	present	1	444	80.008
ams2	Crossover_4	1.0-rc12	20101026.110827	experimental	75	1	2	orientation	0.700000	1	0	0	present	1	461	80.000
ams2	Crossover_4	1.0-rc12	20101026.110830	experimental	76	0	1	orientation	0.700000	1	0	0	absent	1	506	80.008
ams2	Crossover_4	1.0-rc12	20101026.110834	experimental	77	1	2	2v5	0.100000	1	0	0	present	1	663	80.007
ams2	Crossover_4	1.0-rc12	20101026.110838	experimental	78	1	1	orientation	0.700000	1	0	0	present	1	521	80.010
ams2	Crossover_4	1.0-rc12	20101026.110841	experimental	79	1	8	2v5	0.100000	1	0	0	present	1	581	80.001
ams2	Crossover_4	1.0-rc12	20101026.110845	experimental	80	1	2	orientation	0.700000	1	0	0	absent	0	744	80.001
ams2	Crossover_4	1.0-rc12	20101026.110849	experimental	81	1	8	orientation	0.700000	1	0	0	present	1	537	80.005
ams2	Crossover_4	1.0-rc12	20101026.110852	experimental	82	1	8	orientation	0.700000	1	0	0	present	1	817	80.016
ams2	Crossover_4	1.0-rc12	20101026.110856	experimental	83	1	4	2v5	0.100000	1	0	0	present	1	529	80.000
ams2	Crossover_4	1.0-rc12	20101026.110900	experimental	84	1	1	orientation	0.700000	1	0	0	present	1	486	80.015
ams2	Crossover_4	1.0-rc12	20101026.110904	experimental	85	0	2	orientation	0.700000	1	0	0	absent	1	809	80.001
ams2	Crossover_4	1.0-rc12	20101026.110908	experimental	86	0	1	2v5	0.100000	1	0	0	absent	1	738	80.015
ams2	Crossover_4	1.0-rc12	20101026.110911	experimental	87	1	1	2v5	0.100000	1	0	0	present	1	428	79.998
ams2	Crossover_4	1.0-rc12	20101026.110915	experimental	88	1	4	orientation	0.700000	1	0	0	present	1	536	79.995
ams2	Crossover_4	1.0-rc12	20101026.110919	experimental	89	1	8	2v5	0.100000	1	0	0	absent	0	790	79.994
ams2	Crossover_4	1.0-rc12	20101026.110923	experimental	90	0	1	orientation	0.700000	1	0	0	absent	1	515	80.006
ams2	Crossover_4	1.0-rc12	20101026.111017	experimental	91	1	2	orientation	0.700000	1	0	0	present	1	559	80.000
ams2	Crossover_4	1.0-rc12	20101026.111021	experimental	92	0	2	2v5	0.100000	1	0	0	absent	1	647	80.003
ams2	Crossover_4	1.0-rc12	20101026.111024	experimental	93	0	8	orientation	0.700000	1	0	0	absent	1	504	80.000
ams2	Crossover_4	1.0-rc12	20101026.111028	experimental	94	1	2	2v5	0.100000	1	0	0	present	1	426	80.010
ams2	Crossover_4	1.0-rc12	20101026.111032	experimental	95	0	4	orientation	0.700000	1	0	0	present	0	705	80.006
ams2	Crossover_4	1.0-rc12	20101026.111035	experimental	96	1	8	orientation	0.700000	1	0	0	present	1	511	80.010
ams2	Crossover_4	1.0-rc12	20101026.111039	experimental	97	0	8	orientation	0.700000	1	0	0	present	0	469	80.014
ams2	Crossover_4	1.0-rc12	20101026.111043	experimental	98	0	4	orientation	0.700000	1	0	0	absent	1	555	80.005
ams2	Crossover_4	1.0-rc12	20101026.111046	experimental	99	1	8	2v5	0.100000	1	0	0	present	1	556	80.012
ams2	Crossover_4	1.0-rc12	20101026.111050	experimental	100	1	2	2v5	0.100000	1	0	0	present	1	494	80.010
ams2	Crossover_4	1.0-rc12	20101026.111054	experimental	101	0	8	2v5	0.100000	1	0	0	absent	1	798	80.009
ams2	Crossover_4	1.0-rc12	20101026.111058	experimental	102	0	1	2v5	0.100000	1	0	0	absent	1	477	79.993
ams2	Crossover_4	1.0-rc12	20101026.111101	experimental	103	1	8	2v5	0.100000	1	0	0	absent	0	718	80.002
ams2	Crossover_4	1.0-rc12	20101026.111105	experimental	104	0	2	2v5	0.100000	1	0	0	absent	1	528	79.997
ams2	Crossover_4	1.0-rc12	20101026.111109	experimental	105	1	4	orientation	0.700000	1	0	0	absent	0	670	80.008
ams2	Crossover_4	1.0-rc12	20101026.111112	experimental	106	1	4	orientation	0.700000	1	0	0	present	1	451	80.003
ams2	Crossover_4	1.0-rc12	20101026.111116	experimental	107	1	4	2v5	0.100000	1	0	0	absent	0	649	80.015
ams2	Crossover_4	1.0-rc12	20101026.111120	experimental	108	0	2	2v5	0.100000	1	0	0	present	0	655	80.001
ams2	Crossover_4	1.0-rc12	20101026.111124	experimental	109	0	1	2v5	0.100000	1	0	0	absent	1	452	80.006
ams2	Crossover_4	1.0-rc12	20101026.111127	experimental	110	1	8	2v5	0.100000	1	0	0	present	1	589	80.007
ams2	Crossover_4	1.0-rc12	20101026.111131	experimental	111	1	2	2v5	0.100000	1	0	0	present	1	485	80.001
ams2	Crossover_4	1.0-rc12	20101026.111135	experimental	112	0	4	2v5	0.100000	1	0	0	present	0	749	80.005
ams2	Crossover_4	1.0-rc12	20101026.111138	experimental	113	0	1	orientation	0.700000	1	0	0	absent	1	691	80.011
ams2	Crossover_4	1.0-rc12	20101026.111142	experimental	114	0	1	orientation	0.700000	1	0	0	present	0	1044	80.000
ams2	Crossover_4	1.0-rc12	20101026.111146	experimental	115	0	2	2v5	0.100000	1	0	0	absent	1	530	79.999
ams2	Crossover_4	1.0-rc12	20101026.111150	experimental	116	1	1	2v5	0.100000	1	0	0	present	1	578	79.997
ams2	Crossover_4	1.0-rc12	20101026.111154	experimental	117	0	2	2v5	0.100000	1	0	0	absent	1	520	80.002
ams2	Crossover_4	1.0-rc12	20101026.111157	experimental	118	1	8	2v5	0.100000	1	0	0	absent	0	623	80.004
ams2	Crossover_4	1.0-rc12	20101026.111201	experimental	119	1	2	2v5	0.100000	1	0	0	absent	0	792	80.002
ams2	Crossover_4	1.0-rc12	20101026.111205	experimental	120	0	4	2v5	0.100000	1	0	0	present	0	1178	79.999
ams2	Crossover_4	1.0-rc12	20101026.111209	experimental	121	1	2	orientation	0.700000	1	0	0	present	1	588	80.003
ams2	Crossover_4	1.0-rc12	20101026.111213	experimental	122	0	1	orientation	0.700000	1	0	0	absent	1	748	80.007
ams2	Crossover_4	1.0-rc12	20101026.111217	experimental	123	0	8	2v5	0.100000	1	0	0	present	0	596	79.997
ams2	Crossover_4	1.0-rc12	20101026.111221	experimental	124	0	2	orientation	0.700000	1	0	0	absent	1	570	80.002
ams2	Crossover_4	1.0-rc12	20101026.111224	experimental	125	0	2	orientation	0.700000	1	0	0	absent	1	525	79.997
ams2	Crossover_4	1.0-rc12	20101026.111228	experimental	126	1	4	orientation	0.700000	1	0	0	present	1	460	79.998
ams2	Crossover_4	1.0-rc12	20101026.111232	experimental	127	1	4	orientation	0.700000	1	0	0	present	1	512	80.017
ams2	Crossover_4	1.0-rc12	20101026.111235	experimental	128	1	8	2v5	0.100000	1	0	0	present	1	639	80.007
ams2	Crossover_4	1.0-rc12	20101026.111239	experimental	129	1	1	2v5	0.100000	1	0	0	present	1	461	80.005
ams2	Crossover_4	1.0-rc12	20101026.111243	experimental	130	1	1	orientation	0.700000	1	0	0	present	1	473	80.006
ams2	Crossover_4	1.0-rc12	20101026.111246	experimental	131	1	4	orientation	0.700000	1	0	0	present	1	426	80.007
ams2	Crossover_4	1.0-rc12	20101026.111250	experimental	132	1	1	2v5	0.100000	1	0	0	present	1	477	80.003
ams2	Crossover_4	1.0-rc12	20101026.111253	experimental	133	0	1	orientation	0.700000	1	0	0	absent	1	579	80.011
ams2	Crossover_4	1.0-rc12	20101026.111257	experimental	134	1	4	2v5	0.100000	1	0	0	present	1	580	80.010
ams2	Crossover_4	1.0-rc12	20101026.111301	experimental	135	0	4	2v5	0.100000	1	0	0	absent	1	553	80.000
ams2	Crossover_4	1.0-rc12	20101026.111304	experimental	136	0	2	2v5	0.100000	1	0	0	absent	1	542	80.007
ams2	Crossover_4	1.0-rc12	20101026.111308	experimental	137	1	8	orientation	0.700000	1	0	0	absent	0	603	80.018
ams2	Crossover_4	1.0-rc12	20101026.111312	experimental	138	1	4	orientation	0.700000	1	0	0	present	1	494	80.003
ams2	Crossover_4	1.0-rc12	20101026.111315	experimental	139	0	2	orientation	0.700000	1	0	0	absent	1	571	80.002
ams2	Crossover_4	1.0-rc12	20101026.111319	experimental	140	0	2	2v5	0.100000	1	0	0	absent	1	570	80.007
ams2	Crossover_4	1.0-rc12	20101026.111403	experimental	141	0	2	orientation	0.700000	1	0	0	absent	1	638	80.015
ams2	Crossover_4	1.0-rc12	20101026.111406	experimental	142	1	1	orientation	0.700000	1	0	0	present	1	470	80.008
ams2	Crossover_4	1.0-rc12	20101026.111410	experimental	143	0	8	2v5	0.100000	1	0	0	absent	1	2152	79.999
ams2	Crossover_4	1.0-rc12	20101026.111415	experimental	144	0	4	2v5	0.100000	1	0	0	absent	1	900	80.004
ams2	Crossover_4	1.0-rc12	20101026.111419	experimental	145	1	8	orientation	0.700000	1	0	0	present	1	477	80.019
ams2	Crossover_4	1.0-rc12	20101026.111423	experimental	146	0	1	orientation	0.700000	1	0	0	absent	1	554	79.999
ams2	Crossover_4	1.0-rc12	20101026.111426	experimental	147	1	8	orientation	0.700000	1	0	0	present	1	461	80.016
ams2	Crossover_4	1.0-rc12	20101026.111430	experimental	148	1	8	orientation	0.700000	1	0	0	present	1	439	80.010
ams2	Crossover_4	1.0-rc12	20101026.111434	experimental	149	1	1	2v5	0.100000	1	0	0	present	1	738	80.005
ams2	Crossover_4	1.0-rc12	20101026.111437	experimental	150	1	1	orientation	0.700000	1	0	0	present	1	495	80.007
ams2	Crossover_4	1.0-rc12	20101026.111441	experimental	151	1	8	orientation	0.700000	1	0	0	present	1	462	80.009
ams2	Crossover_4	1.0-rc12	20101026.111445	experimental	152	0	4	2v5	0.100000	1	0	0	present	0	718	80.016
ams2	Crossover_4	1.0-rc12	20101026.111448	experimental	153	0	2	orientation	0.700000	1	0	0	absent	1	674	80.009
ams2	Crossover_4	1.0-rc12	20101026.111452	experimental	154	0	1	orientation	0.700000	1	0	0	absent	1	622	79.995
ams2	Crossover_4	1.0-rc12	20101026.111456	experimental	155	0	1	2v5	0.100000	1	0	0	absent	1	547	80.006
ams2	Crossover_4	1.0-rc12	20101026.111500	experimental	156	0	1	2v5	0.100000	1	0	0	absent	1	451	79.993
ams2	Crossover_4	1.0-rc12	20101026.111503	experimental	157	0	1	2v5	0.100000	1	0	0	absent	1	512	80.002
ams2	Crossover_4	1.0-rc12	20101026.111507	experimental	158	0	1	2v5	0.100000	1	0	0	absent	1	457	80.011
ams2	Crossover_4	1.0-rc12	20101026.111511	experimental	159	0	8	2v5	0.100000	1	0	0	absent	1	973	80.002
ams2	Crossover_4	1.0-rc12	20101026.111515	experimental	160	1	1	orientation	0.700000	1	0	0	present	1	460	80.000
ams2	Crossover_4	1.0-rc12	20101026.111518	experimental	161	1	2	2v5	0.100000	1	0	0	present	1	633	80.008
ams2	Crossover_4	1.0-rc12	20101026.111522	experimental	162	0	2	orientation	0.700000	1	0	0	absent	1	578	79.999
ams2	Crossover_4	1.0-rc12	20101026.111526	experimental	163	1	4	2v5	0.100000	1	0	0	present	1	510	79.998
ams2	Crossover_4	1.0-rc12	20101026.111529	experimental	164	0	4	orientation	0.700000	1	0	0	absent	1	638	80.015
ams2	Crossover_4	1.0-rc12	20101026.111533	experimental	165	1	2	orientation	0.700000	1	0	0	present	1	607	80.001
ams2	Crossover_4	1.0-rc12	20101026.111537	experimental	166	0	2	orientation	0.700000	1	0	0	absent	1	504	80.003
ams2	Crossover_4	1.0-rc12	20101026.111541	experimental	167	1	4	orientation	0.700000	1	0	0	present	1	572	79.998
ams2	Crossover_4	1.0-rc12	20101026.111544	experimental	168	1	4	2v5	0.100000	1	0	0	absent	0	554	80.012
ams2	Crossover_4	1.0-rc12	20101026.111548	experimental	169	0	4	orientation	0.700000	1	0	0	absent	1	654	80.003
ams2	Crossover_4	1.0-rc12	20101026.111552	experimental	170	1	8	2v5	0.100000	1	0	0	present	1	566	80.013
ams2	Crossover_4	1.0-rc12	20101026.111555	experimental	171	1	1	2v5	0.100000	1	0	0	present	1	505	80.005
ams2	Crossover_4	1.0-rc12	20101026.111559	experimental	172	1	1	2v5	0.100000	1	0	0	present	1	444	80.003
ams2	Crossover_4	1.0-rc12	20101026.111603	experimental	173	0	2	orientation	0.700000	1	0	0	absent	1	503	80.012
ams2	Crossover_4	1.0-rc12	20101026.111606	experimental	174	1	8	orientation	0.700000	1	0	0	present	1	507	80.009
ams2	Crossover_4	1.0-rc12	20101026.111610	experimental	175	0	1	orientation	0.700000	1	0	0	absent	1	468	80.011
ams2	Crossover_4	1.0-rc12	20101026.111614	experimental	176	0	1	2v5	0.100000	1	0	0	absent	1	511	80.016
ams2	Crossover_4	1.0-rc12	20101026.111617	experimental	177	1	4	2v5	0.100000	1	0	0	absent	0	538	80.001
ams2	Crossover_4	1.0-rc12	20101026.111621	experimental	178	0	1	2v5	0.100000	1	0	0	absent	1	435	80.013
ams2	Crossover_4	1.0-rc12	20101026.111624	experimental	179	0	4	orientation	0.700000	1	0	0	absent	1	537	80.016
ams2	Crossover_4	1.0-rc12	20101026.111628	experimental	180	1	1	orientation	0.700000	1	0	0	present	1	610	80.012
ams2	Crossover_4	1.0-rc12	20101026.111632	experimental	181	0	2	2v5	0.100000	1	0	0	absent	1	519	80.022
ams2	Crossover_4	1.0-rc12	20101026.111635	experimental	182	0	1	2v5	0.100000	1	0	0	absent	1	505	80.006
ams2	Crossover_4	1.0-rc12	20101026.111639	experimental	183	0	1	orientation	0.700000	1	0	0	absent	1	635	80.007
ams2	Crossover_4	1.0-rc12	20101026.111643	experimental	184	0	1	orientation	0.700000	1	0	0	absent	1	478	79.996
ams2	Crossover_4	1.0-rc12	20101026.111646	experimental	185	0	8	2v5	0.100000	1	0	0	absent	1	1514	79.997
ams2	Crossover_4	1.0-rc12	20101026.111651	experimental	186	0	8	2v5	0.100000	1	0	0	absent	1	1214	80.004
ams2	Crossover_4	1.0-rc12	20101026.111655	experimental	187	0	8	2v5	0.100000	1	0	0	absent	1	985	80.004
ams2	Crossover_4	1.0-rc12	20101026.111700	experimental	188	1	1	2v5	0.100000	1	0	0	present	1	463	80.032
ams2	Crossover_4	1.0-rc12	20101026.111703	experimental	189	0	2	2v5	0.100000	1	0	0	absent	1	1078	80.005
ams2	Crossover_4	1.0-rc12	20101026.111707	experimental	190	0	8	2v5	0.100000	1	0	0	present	0	816	80.008
ams2	Crossover_4	1.0-rc12	20101026.111801	experimental	191	1	2	orientation	0.700000	1	0	0	absent	0	562	80.004
ams2	Crossover_4	1.0-rc12	20101026.111804	experimental	192	0	8	orientation	0.700000	1	0	0	present	0	505	80.003
ams2	Crossover_4	1.0-rc12	20101026.111808	experimental	193	1	1	2v5	0.100000	1	0	0	present	1	578	80.006
ams2	Crossover_4	1.0-rc12	20101026.111812	experimental	194	0	1	orientation	0.700000	1	0	0	absent	1	511	80.007
ams2	Crossover_4	1.0-rc12	20101026.111815	experimental	195	1	2	2v5	0.100000	1	0	0	present	1	410	80.008
ams2	Crossover_4	1.0-rc12	20101026.111819	experimental	196	0	2	2v5	0.100000	1	0	0	absent	1	603	80.009
ams2	Crossover_4	1.0-rc12	20101026.111823	experimental	197	1	4	2v5	0.100000	1	0	0	absent	0	597	79.998
ams2	Crossover_4	1.0-rc12	20101026.111826	experimental	198	0	8	orientation	0.700000	1	0	0	absent	1	631	80.003
ams2	Crossover_4	1.0-rc12	20101026.111830	experimental	199	1	1	2v5	0.100000	1	0	0	present	1	409	80.009
ams2	Crossover_4	1.0-rc12	20101026.111834	experimental	200	1	4	orientation	0.700000	1	0	0	present	1	502	80.013
ams2	Crossover_4	1.0-rc12	20101026.111837	experimental	201	1	1	orientation	0.700000	1	0	0	present	1	435	80.004
ams2	Crossover_4	1.0-rc12	20101026.111841	experimental	202	0	8	2v5	0.100000	1	0	0	absent	1	697	80.013
ams2	Crossover_4	1.0-rc12	20101026.111845	experimental	203	0	4	2v5	0.100000	1	0	0	present	0	554	80.004
ams2	Crossover_4	1.0-rc12	20101026.111848	experimental	204	0	2	2v5	0.100000	1	0	0	absent	1	811	80.002
ams2	Crossover_4	1.0-rc12	20101026.111852	experimental	205	0	1	orientation	0.700000	1	0	0	absent	1	539	80.018
ams2	Crossover_4	1.0-rc12	20101026.111856	experimental	206	1	1	orientation	0.700000	1	0	0	present	1	520	80.010
ams2	Crossover_4	1.0-rc12	20101026.111900	experimental	207	0	4	orientation	0.700000	1	0	0	absent	1	538	80.002
ams2	Crossover_4	1.0-rc12	20101026.111903	experimental	208	0	2	orientation	0.700000	1	0	0	absent	1	521	79.996
ams2	Crossover_4	1.0-rc12	20101026.111907	experimental	209	0	4	2v5	0.100000	1	0	0	absent	1	1888	79.996
ams2	Crossover_4	1.0-rc12	20101026.111912	experimental	210	1	4	orientation	0.700000	1	0	0	absent	0	679	80.006
ams2	Crossover_4	1.0-rc12	20101026.111916	experimental	211	1	4	orientation	0.700000	1	0	0	present	1	499	80.007
ams2	Crossover_4	1.0-rc12	20101026.111919	experimental	212	0	1	orientation	0.700000	1	0	0	absent	1	533	80.011
ams2	Crossover_4	1.0-rc12	20101026.111923	experimental	213	1	1	2v5	0.100000	1	0	0	present	1	461	80.000
ams2	Crossover_4	1.0-rc12	20101026.111927	experimental	214	0	4	orientation	0.700000	1	0	0	absent	1	1994	80.009
ams2	Crossover_4	1.0-rc12	20101026.111932	experimental	215	0	2	2v5	0.100000	1	0	0	present	0	571	80.006
ams2	Crossover_4	1.0-rc12	20101026.111935	experimental	216	1	8	2v5	0.100000	1	0	0	present	1	504	80.002
ams2	Crossover_4	1.0-rc12	20101026.111939	experimental	217	1	4	2v5	0.100000	1	0	0	present	1	447	80.007
ams2	Crossover_4	1.0-rc12	20101026.111943	experimental	218	0	8	orientation	0.700000	1	0	0	absent	1	639	80.034
ams2	Crossover_4	1.0-rc12	20101026.111946	experimental	219	1	1	2v5	0.100000	1	0	0	present	1	446	80.004
ams2	Crossover_4	1.0-rc12	20101026.111950	experimental	220	0	2	orientation	0.700000	1	0	0	absent	1	485	80.003
ams2	Crossover_4	1.0-rc12	20101026.111954	experimental	221	1	1	orientation	0.700000	1	0	0	present	1	496	80.009
ams2	Crossover_4	1.0-rc12	20101026.111957	experimental	222	0	2	orientation	0.700000	1	0	0	absent	1	479	79.997
ams2	Crossover_4	1.0-rc12	20101026.112001	experimental	223	0	4	orientation	0.700000	1	0	0	absent	1	469	80.014
ams2	Crossover_4	1.0-rc12	20101026.112004	experimental	224	0	4	2v5	0.100000	1	0	0	absent	1	571	80.016
ams2	Crossover_4	1.0-rc12	20101026.112008	experimental	225	0	8	orientation	0.700000	1	0	0	absent	1	634	80.007
ams2	Crossover_4	1.0-rc12	20101026.112012	experimental	226	0	4	2v5	0.100000	1	0	0	absent	1	705	80.005
ams2	Crossover_4	1.0-rc12	20101026.112016	experimental	227	0	8	orientation	0.700000	1	0	0	absent	1	602	80.007
ams2	Crossover_4	1.0-rc12	20101026.112019	experimental	228	1	4	orientation	0.700000	1	0	0	present	1	539	80.012
ams2	Crossover_4	1.0-rc12	20101026.112023	experimental	229	1	2	orientation	0.700000	1	0	0	present	1	546	80.005
ams2	Crossover_4	1.0-rc12	20101026.112027	experimental	230	0	1	orientation	0.700000	1	0	0	absent	1	460	79.997
ams2	Crossover_4	1.0-rc12	20101026.112030	experimental	231	0	8	2v5	0.100000	1	0	0	absent	1	743	80.000
ams2	Crossover_4	1.0-rc12	20101026.112034	experimental	232	0	4	orientation	0.700000	1	0	0	absent	1	806	80.009
ams2	Crossover_4	1.0-rc12	20101026.112038	experimental	233	0	8	2v5	0.100000	1	0	0	absent	1	581	80.004
ams2	Crossover_4	1.0-rc12	20101026.112042	experimental	234	1	1	2v5	0.100000	1	0	0	present	1	478	80.004
ams2	Crossover_4	1.0-rc12	20101026.112046	experimental	235	1	2	orientation	0.700000	1	0	0	present	1	495	80.012
ams2	Crossover_4	1.0-rc12	20101026.112049	experimental	236	0	8	orientation	0.700000	1	0	0	present	0	978	80.002
ams2	Crossover_4	1.0-rc12	20101026.112053	experimental	237	0	8	orientation	0.700000	1	0	0	absent	1	740	80.007
ams2	Crossover_4	1.0-rc12	20101026.112057	experimental	238	1	4	2v5	0.100000	1	0	0	present	1	607	80.002
ams2	Crossover_4	1.0-rc12	20101026.112101	experimental	239	1	2	2v5	0.100000	1	0	0	present	1	487	80.013
ams2	Crossover_4	1.0-rc12	20101026.112105	experimental	240	0	2	orientation	0.700000	1	0	0	absent	1	733	80.005
ams2	Crossover_4	1.0-rc12	20101026.112114	experimental	241	1	8	orientation	0.700000	1	0	0	present	1	437	79.997
ams2	Crossover_4	1.0-rc12	20101026.112117	experimental	242	1	8	orientation	0.700000	1	0	0	present	1	463	80.001
ams2	Crossover_4	1.0-rc12	20101026.112121	experimental	243	1	2	orientation	0.700000	1	0	0	absent	0	664	80.009
ams2	Crossover_4	1.0-rc12	20101026.112125	experimental	244	1	2	orientation	0.700000	1	0	0	present	1	576	80.015
ams2	Crossover_4	1.0-rc12	20101026.112128	experimental	245	0	4	orientation	0.700000	1	0	0	absent	1	580	80.003
ams2	Crossover_4	1.0-rc12	20101026.112132	experimental	246	0	2	orientation	0.700000	1	0	0	absent	1	481	80.013
ams2	Crossover_4	1.0-rc12	20101026.112136	experimental	247	0	2	orientation	0.700000	1	0	0	absent	1	511	80.007
ams2	Crossover_4	1.0-rc12	20101026.112139	experimental	248	0	8	orientation	0.700000	1	0	0	absent	1	530	80.001
ams2	Crossover_4	1.0-rc12	20101026.112143	experimental	249	0	2	orientation	0.700000	1	0	0	absent	1	445	80.004
ams2	Crossover_4	1.0-rc12	20101026.112146	experimental	250	0	8	orientation	0.700000	1	0	0	absent	1	697	79.997
ams2	Crossover_4	1.0-rc12	20101026.112150	experimental	251	1	2	2v5	0.100000	1	0	0	present	1	463	79.995
ams2	Crossover_4	1.0-rc12	20101026.112154	experimental	252	1	8	2v5	0.100000	1	0	0	present	1	468	79.999
ams2	Crossover_4	1.0-rc12	20101026.112157	experimental	253	1	4	2v5	0.100000	1	0	0	present	1	564	80.009
ams2	Crossover_4	1.0-rc12	20101026.112201	experimental	254	0	8	2v5	0.100000	1	0	0	absent	1	622	80.002
ams2	Crossover_4	1.0-rc12	20101026.112205	experimental	255	1	1	orientation	0.700000	1	0	0	present	1	505	80.013
ams2	Crossover_4	1.0-rc12	20101026.112209	experimental	256	0	4	2v5	0.100000	1	0	0	absent	1	556	80.014
ams2	Crossover_4	1.0-rc12	20101026.112212	experimental	257	1	1	2v5	0.100000	1	0	0	present	1	512	80.002
ams2	Crossover_4	1.0-rc12	20101026.112216	experimental	258	1	4	2v5	0.100000	1	0	0	absent	0	495	80.003
ams2	Crossover_4	1.0-rc12	20101026.112220	experimental	259	0	8	2v5	0.100000	1	0	0	present	0	910	80.006
ams2	Crossover_4	1.0-rc12	20101026.112224	experimental	260	0	2	orientation	0.700000	1	0	0	absent	1	537	80.004
ams2	Crossover_4	1.0-rc12	20101026.112227	experimental	261	1	2	2v5	0.100000	1	0	0	present	1	514	80.001
ams2	Crossover_4	1.0-rc12	20101026.112231	experimental	262	0	1	2v5	0.100000	1	0	0	absent	1	447	80.006
ams2	Crossover_4	1.0-rc12	20101026.112234	experimental	263	1	4	2v5	0.100000	1	0	0	present	1	504	80.002
ams2	Crossover_4	1.0-rc12	20101026.112238	experimental	264	1	4	2v5	0.100000	1	0	0	absent	0	1381	80.000
ams2	Crossover_4	1.0-rc12	20101026.112243	experimental	265	0	1	orientation	0.700000	1	0	0	absent	1	521	80.012
ams2	Crossover_4	1.0-rc12	20101026.112246	experimental	266	1	8	orientation	0.700000	1	0	0	present	1	563	80.004
ams2	Crossover_4	1.0-rc12	20101026.112250	experimental	267	1	1	2v5	0.100000	1	0	0	present	1	480	80.017
ams2	Crossover_4	1.0-rc12	20101026.112254	experimental	268	1	8	orientation	0.700000	1	0	0	present	1	469	80.009
ams2	Crossover_4	1.0-rc12	20101026.112257	experimental	269	0	1	2v5	0.100000	1	0	0	absent	1	734	80.003
ams2	Crossover_4	1.0-rc12	20101026.112301	experimental	270	1	2	orientation	0.700000	1	0	0	present	1	554	80.000
ams2	Crossover_4	1.0-rc12	20101026.112305	experimental	271	0	8	2v5	0.100000	1	0	0	absent	1	790	80.003
ams2	Crossover_4	1.0-rc12	20101026.112309	experimental	272	1	2	2v5	0.100000	1	0	0	present	1	470	80.010
ams2	Crossover_4	1.0-rc12	20101026.112312	experimental	273	0	1	2v5	0.100000	1	0	0	absent	1	470	79.997
ams2	Crossover_4	1.0-rc12	20101026.112316	experimental	274	0	2	2v5	0.100000	1	0	0	absent	1	589	80.008
ams2	Crossover_4	1.0-rc12	20101026.112320	experimental	275	1	8	orientation	0.700000	1	0	0	present	1	435	80.011
ams2	Crossover_4	1.0-rc12	20101026.112323	experimental	276	1	2	orientation	0.700000	1	0	0	present	1	426	79.990
ams2	Crossover_4	1.0-rc12	20101026.112327	experimental	277	0	4	2v5	0.100000	1	0	0	absent	1	615	80.000
ams2	Crossover_4	1.0-rc12	20101026.112331	experimental	278	0	2	2v5	0.100000	1	0	0	absent	1	446	79.999
ams2	Crossover_4	1.0-rc12	20101026.112334	experimental	279	0	4	orientation	0.700000	1	0	0	absent	1	485	80.004
ams2	Crossover_4	1.0-rc12	20101026.112338	experimental	280	0	2	orientation	0.700000	1	0	0	absent	1	451	79.998
ams2	Crossover_4	1.0-rc12	20101026.112341	experimental	281	1	4	2v5	0.100000	1	0	0	present	1	494	80.015
ams2	Crossover_4	1.0-rc12	20101026.112345	experimental	282	0	1	2v5	0.100000	1	0	0	absent	1	478	80.007
ams2	Crossover_4	1.0-rc12	20101026.112349	experimental	283	0	8	orientation	0.700000	1	0	0	absent	1	781	80.012
ams2	Crossover_4	1.0-rc12	20101026.112352	experimental	284	1	8	orientation	0.700000	1	0	0	present	1	462	79.996
ams2	Crossover_4	1.0-rc12	20101026.112356	experimental	285	0	4	orientation	0.700000	1	0	0	absent	1	477	80.010
ams2	Crossover_4	1.0-rc12	20101026.112400	experimental	286	0	4	orientation	0.700000	1	0	0	absent	1	628	80.015
ams2	Crossover_4	1.0-rc12	20101026.112403	experimental	287	0	8	orientation	0.700000	1	0	0	present	0	492	80.010
ams2	Crossover_4	1.0-rc12	20101026.112407	experimental	288	1	2	orientation	0.700000	1	0	0	present	1	427	80.001
ams2	Crossover_4	1.0-rc12	20101026.112411	experimental	289	0	4	2v5	0.100000	1	0	0	absent	1	536	79.995
ams2	Crossover_4	1.0-rc12	20101026.112414	experimental	290	1	2	2v5	0.100000	1	0	0	present	1	613	79.993
ams2	Crossover_4	1.0-rc12	20101026.112429	experimental	291	0	8	2v5	0.100000	1	0	0	absent	1	588	80.010
ams2	Crossover_4	1.0-rc12	20101026.112433	experimental	292	1	4	orientation	0.700000	1	0	0	present	1	443	80.004
ams2	Crossover_4	1.0-rc12	20101026.112437	experimental	293	1	1	2v5	0.100000	1	0	0	present	1	563	79.996
ams2	Crossover_4	1.0-rc12	20101026.112440	experimental	294	0	2	2v5	0.100000	1	0	0	absent	1	715	80.008
ams2	Crossover_4	1.0-rc12	20101026.112444	experimental	295	0	1	2v5	0.100000	1	0	0	absent	1	488	80.011
ams2	Crossover_4	1.0-rc12	20101026.112448	experimental	296	0	2	orientation	0.700000	1	0	0	absent	1	955	80.007
ams2	Crossover_4	1.0-rc12	20101026.112452	experimental	297	0	1	orientation	0.700000	1	0	0	absent	1	671	80.012
ams2	Crossover_4	1.0-rc12	20101026.112456	experimental	298	1	4	orientation	0.700000	1	0	0	present	1	487	80.001
ams2	Crossover_4	1.0-rc12	20101026.112459	experimental	299	1	1	orientation	0.700000	1	0	0	present	1	1053	80.016
ams2	Crossover_4	1.0-rc12	20101026.112504	experimental	300	1	8	orientation	0.700000	1	0	0	present	1	494	80.005
ams2	Crossover_4	1.0-rc12	20101026.112507	experimental	301	0	2	2v5	0.100000	1	0	0	absent	1	2002	79.971
ams2	Crossover_4	1.0-rc12	20101026.112512	experimental	302	1	1	orientation	0.700000	1	0	0	present	1	723	80.007
ams2	Crossover_4	1.0-rc12	20101026.112516	experimental	303	1	8	orientation	0.700000	1	0	0	absent	0	605	80.017
ams2	Crossover_4	1.0-rc12	20101026.112520	experimental	304	1	2	orientation	0.700000	1	0	0	absent	0	587	80.006
ams2	Crossover_4	1.0-rc12	20101026.112524	experimental	305	1	4	2v5	0.100000	1	0	0	present	1	578	80.015
ams2	Crossover_4	1.0-rc12	20101026.112527	experimental	306	1	1	orientation	0.700000	1	0	0	present	1	458	80.005
ams2	Crossover_4	1.0-rc12	20101026.112531	experimental	307	0	1	2v5	0.100000	1	0	0	absent	1	724	80.003
ams2	Crossover_4	1.0-rc12	20101026.112535	experimental	308	0	8	orientation	0.700000	1	0	0	absent	1	615	80.004
ams2	Crossover_4	1.0-rc12	20101026.112539	experimental	309	0	4	2v5	0.100000	1	0	0	absent	1	688	80.007
ams2	Crossover_4	1.0-rc12	20101026.112542	experimental	310	1	2	2v5	0.100000	1	0	0	present	1	453	80.000
ams2	Crossover_4	1.0-rc12	20101026.112546	experimental	311	0	4	orientation	0.700000	1	0	0	absent	1	476	80.005
ams2	Crossover_4	1.0-rc12	20101026.112550	experimental	312	1	1	orientation	0.700000	1	0	0	present	1	536	80.011
ams2	Crossover_4	1.0-rc12	20101026.112553	experimental	313	0	2	2v5	0.100000	1	0	0	absent	1	570	80.009
ams2	Crossover_4	1.0-rc12	20101026.112557	experimental	314	1	1	orientation	0.700000	1	0	0	present	1	494	80.004
ams2	Crossover_4	1.0-rc12	20101026.112601	experimental	315	0	8	2v5	0.100000	1	0	0	absent	1	537	80.004
ams2	Crossover_4	1.0-rc12	20101026.112604	experimental	316	1	8	2v5	0.100000	1	0	0	absent	0	633	80.014
ams2	Crossover_4	1.0-rc12	20101026.112608	experimental	317	0	8	orientation	0.700000	1	0	0	absent	1	631	80.006
ams2	Crossover_4	1.0-rc12	20101026.112612	experimental	318	1	4	orientation	0.700000	1	0	0	absent	0	544	79.999
ams2	Crossover_4	1.0-rc12	20101026.112616	experimental	319	1	2	2v5	0.100000	1	0	0	absent	0	663	80.016
ams2	Crossover_4	1.0-rc12	20101026.112619	experimental	320	0	2	2v5	0.100000	1	0	0	absent	1	1608	80.007
ams2	Crossover_4	1.0-rc12	20101026.112624	experimental	321	1	8	orientation	0.700000	1	0	0	present	1	502	79.999
ams2	Crossover_4	1.0-rc12	20101026.112628	experimental	322	0	4	orientation	0.700000	1	0	0	absent	1	528	79.994
ams2	Crossover_4	1.0-rc12	20101026.112631	experimental	323	0	8	2v5	0.100000	1	0	0	absent	1	554	79.997
ams2	Crossover_4	1.0-rc12	20101026.112635	experimental	324	1	8	orientation	0.700000	1	0	0	present	1	502	80.009
ams2	Crossover_4	1.0-rc12	20101026.112639	experimental	325	0	2	orientation	0.700000	1	0	0	absent	1	536	80.003
ams2	Crossover_4	1.0-rc12	20101026.112642	experimental	326	0	4	2v5	0.100000	1	0	0	absent	1	523	80.014
ams2	Crossover_4	1.0-rc12	20101026.112646	experimental	327	0	1	2v5	0.100000	1	0	0	absent	1	511	80.009
ams2	Crossover_4	1.0-rc12	20101026.112650	experimental	328	1	2	2v5	0.100000	1	0	0	present	1	503	80.013
ams2	Crossover_4	1.0-rc12	20101026.112653	experimental	329	1	4	2v5	0.100000	1	0	0	present	1	462	80.005
ams2	Crossover_4	1.0-rc12	20101026.112657	experimental	330	1	2	2v5	0.100000	1	0	0	present	1	487	80.003
ams2	Crossover_4	1.0-rc12	20101026.112701	experimental	331	0	8	2v5	0.100000	1	0	0	absent	1	589	80.002
ams2	Crossover_4	1.0-rc12	20101026.112704	experimental	332	1	4	orientation	0.700000	1	0	0	absent	0	546	80.009
ams2	Crossover_4	1.0-rc12	20101026.112708	experimental	333	0	2	orientation	0.700000	1	0	0	absent	1	468	80.006
ams2	Crossover_4	1.0-rc12	20101026.112712	experimental	334	1	2	orientation	0.700000	1	0	0	present	1	487	80.004
ams2	Crossover_4	1.0-rc12	20101026.112715	experimental	335	0	8	orientation	0.700000	1	0	0	absent	1	521	80.017
ams2	Crossover_4	1.0-rc12	20101026.112719	experimental	336	0	1	orientation	0.700000	1	0	0	absent	1	503	80.008
ams2	Crossover_4	1.0-rc12	20101026.112722	experimental	337	1	1	orientation	0.700000	1	0	0	present	1	447	79.996
ams2	Crossover_4	1.0-rc12	20101026.112726	experimental	338	0	8	2v5	0.100000	1	0	0	absent	1	605	80.006
ams2	Crossover_4	1.0-rc12	20101026.112730	experimental	339	0	4	2v5	0.100000	1	0	0	absent	1	737	80.006
ams2	Crossover_4	1.0-rc12	20101026.112734	experimental	340	1	8	orientation	0.700000	1	0	0	present	1	848	80.000
ams2	Crossover_4	1.0-rc12	20101026.112809	experimental	341	1	2	2v5	0.100000	1	0	0	present	1	503	80.000
ams2	Crossover_4	1.0-rc12	20101026.112813	experimental	342	1	4	2v5	0.100000	1	0	0	present	1	554	80.013
ams2	Crossover_4	1.0-rc12	20101026.112816	experimental	343	0	4	orientation	0.700000	1	0	0	absent	1	621	80.005
ams2	Crossover_4	1.0-rc12	20101026.112820	experimental	344	1	8	2v5	0.100000	1	0	0	absent	0	800	80.000
ams2	Crossover_4	1.0-rc12	20101026.112824	experimental	345	0	4	orientation	0.700000	1	0	0	absent	1	494	80.003
ams2	Crossover_4	1.0-rc12	20101026.112828	experimental	346	1	2	2v5	0.100000	1	0	0	present	1	600	80.008
ams2	Crossover_4	1.0-rc12	20101026.112832	experimental	347	0	2	orientation	0.700000	1	0	0	absent	1	505	80.004
ams2	Crossover_4	1.0-rc12	20101026.112835	experimental	348	1	1	orientation	0.700000	1	0	0	present	1	443	80.002
ams2	Crossover_4	1.0-rc12	20101026.112839	experimental	349	1	2	2v5	0.100000	1	0	0	present	1	457	80.008
ams2	Crossover_4	1.0-rc12	20101026.112842	experimental	350	1	8	2v5	0.100000	1	0	0	present	1	825	80.006
ams2	Crossover_4	1.0-rc12	20101026.112846	experimental	351	0	8	orientation	0.700000	1	0	0	absent	1	647	80.003
ams2	Crossover_4	1.0-rc12	20101026.112850	experimental	352	1	8	2v5	0.100000	1	0	0	present	1	519	80.008
ams2	Crossover_4	1.0-rc12	20101026.112854	experimental	353	1	8	2v5	0.100000	1	0	0	absent	0	747	80.016
ams2	Crossover_4	1.0-rc12	20101026.112858	experimental	354	0	4	orientation	0.700000	1	0	0	absent	1	629	80.015
ams2	Crossover_4	1.0-rc12	20101026.112901	experimental	355	0	4	orientation	0.700000	1	0	0	absent	1	593	80.014
ams2	Crossover_4	1.0-rc12	20101026.112905	experimental	356	1	8	2v5	0.100000	1	0	0	present	1	528	80.006
ams2	Crossover_4	1.0-rc12	20101026.112909	experimental	357	1	2	orientation	0.700000	1	0	0	present	1	522	80.007
ams2	Crossover_4	1.0-rc12	20101026.112912	experimental	358	1	4	orientation	0.700000	1	0	0	present	1	463	80.000
ams2	Crossover_4	1.0-rc12	20101026.112916	experimental	359	0	4	orientation	0.700000	1	0	0	absent	1	562	80.008
ams2	Crossover_4	1.0-rc12	20101026.112920	experimental	360	1	8	orientation	0.700000	1	0	0	absent	0	611	80.007
ams2	Crossover_4	1.0-rc12	20101026.112923	experimental	361	1	2	orientation	0.700000	1	0	0	absent	0	1813	80.007
ams2	Crossover_4	1.0-rc12	20101026.112928	experimental	362	0	8	orientation	0.700000	1	0	0	absent	1	951	80.007
ams2	Crossover_4	1.0-rc12	20101026.112932	experimental	363	0	2	2v5	0.100000	1	0	0	present	0	867	80.005
ams2	Crossover_4	1.0-rc12	20101026.112936	experimental	364	1	2	orientation	0.700000	1	0	0	present	1	537	80.007
ams2	Crossover_4	1.0-rc12	20101026.112940	experimental	365	1	4	orientation	0.700000	1	0	0	present	1	680	80.007
ams2	Crossover_4	1.0-rc12	20101026.112944	experimental	366	1	8	2v5	0.100000	1	0	0	present	1	614	80.012
ams2	Crossover_4	1.0-rc12	20101026.112948	experimental	367	1	1	2v5	0.100000	1	0	0	present	1	468	79.996
ams2	Crossover_4	1.0-rc12	20101026.112951	experimental	368	1	2	orientation	0.700000	1	0	0	present	1	422	80.006
ams2	Crossover_4	1.0-rc12	20101026.112955	experimental	369	0	2	2v5	0.100000	1	0	0	absent	1	553	80.005
ams2	Crossover_4	1.0-rc12	20101026.112959	experimental	370	0	4	orientation	0.700000	1	0	0	present	0	740	80.001
ams2	Crossover_4	1.0-rc12	20101026.113002	experimental	371	0	8	2v5	0.100000	1	0	0	absent	1	769	80.007
ams2	Crossover_4	1.0-rc12	20101026.113006	experimental	372	1	4	2v5	0.100000	1	0	0	present	1	496	80.000
ams2	Crossover_4	1.0-rc12	20101026.113010	experimental	373	0	4	2v5	0.100000	1	0	0	absent	1	591	80.018
ams2	Crossover_4	1.0-rc12	20101026.113014	experimental	374	0	8	2v5	0.100000	1	0	0	absent	1	778	80.005
ams2	Crossover_4	1.0-rc12	20101026.113018	experimental	375	0	1	orientation	0.700000	1	0	0	absent	1	523	80.005
ams2	Crossover_4	1.0-rc12	20101026.113021	experimental	376	0	1	orientation	0.700000	1	0	0	absent	1	571	80.005
ams2	Crossover_4	1.0-rc12	20101026.113025	experimental	377	1	2	orientation	0.700000	1	0	0	present	1	452	80.081
ams2	Crossover_4	1.0-rc12	20101026.113028	experimental	378	1	2	orientation	0.700000	1	0	0	present	1	446	80.008
ams2	Crossover_4	1.0-rc12	20101026.113032	experimental	379	0	4	2v5	0.100000	1	0	0	absent	1	1517	80.004
ams2	Crossover_4	1.0-rc12	20101026.113037	experimental	380	0	1	2v5	0.100000	1	0	0	present	0	648	80.007
ams2	Crossover_4	1.0-rc12	20101026.113041	experimental	381	1	8	orientation	0.700000	1	0	0	absent	0	599	79.998
ams2	Crossover_4	1.0-rc12	20101026.113044	experimental	382	0	4	orientation	0.700000	1	0	0	absent	1	623	80.004
ams2	Crossover_4	1.0-rc12	20101026.113048	experimental	383	1	4	2v5	0.100000	1	0	0	present	1	510	80.006
ams2	Crossover_4	1.0-rc12	20101026.113052	experimental	384	1	4	orientation	0.700000	1	0	0	present	1	480	79.999
ams2	Crossover_4	1.0-rc12	20101026.113055	experimental	385	1	1	orientation	0.700000	1	0	0	present	1	402	80.005
ams2	Crossover_4	1.0-rc12	20101026.113059	experimental	386	0	1	2v5	0.100000	1	0	0	absent	1	520	80.000
ams2	Crossover_4	1.0-rc12	20101026.113102	experimental	387	0	1	2v5	0.100000	1	0	0	absent	1	453	80.007
ams2	Crossover_4	1.0-rc12	20101026.113106	experimental	388	1	8	2v5	0.100000	1	0	0	absent	0	1653	80.010
ams2	Crossover_4	1.0-rc12	20101026.113111	experimental	389	1	4	2v5	0.100000	1	0	0	present	1	733	79.996
ams2	Crossover_4	1.0-rc12	20101026.113115	experimental	390	0	8	orientation	0.700000	1	0	0	absent	1	537	80.005
ams2	Crossover_4	1.0-rc12	20101026.113123	experimental	391	0	4	orientation	0.700000	1	0	0	absent	1	462	79.995
ams2	Crossover_4	1.0-rc12	20101026.113127	experimental	392	0	4	2v5	0.100000	1	0	0	present	0	575	80.013
ams2	Crossover_4	1.0-rc12	20101026.113131	experimental	393	1	2	orientation	0.700000	1	0	0	present	1	595	80.000
ams2	Crossover_4	1.0-rc12	20101026.113135	experimental	394	0	2	2v5	0.100000	1	0	0	absent	1	546	80.009
ams2	Crossover_4	1.0-rc12	20101026.113138	experimental	395	1	2	2v5	0.100000	1	0	0	present	1	457	80.004
ams2	Crossover_4	1.0-rc12	20101026.113142	experimental	396	0	8	orientation	0.700000	1	0	0	absent	1	1201	80.012
ams2	Crossover_4	1.0-rc12	20101026.113146	experimental	397	0	8	2v5	0.100000	1	0	0	absent	1	654	80.002
ams2	Crossover_4	1.0-rc12	20101026.113150	experimental	398	1	1	2v5	0.100000	1	0	0	present	1	512	80.010
ams2	Crossover_4	1.0-rc12	20101026.113154	experimental	399	0	1	orientation	0.700000	1	0	0	absent	1	557	80.011
ams2	Crossover_4	1.0-rc12	20101026.113157	experimental	400	1	2	2v5	0.100000	1	0	0	present	1	572	80.018
ams2	Crossover_4	1.0-rc12	20101106.134211	experimental	1	1	8	2v5	0.100000	1	0	0	present	1	623	79.997
ams2	Crossover_4	1.0-rc12	20101106.134215	experimental	2	0	2	2v5	0.100000	1	0	0	absent	1	534	80.007
ams2	Crossover_4	1.0-rc12	20101106.134219	experimental	3	0	4	2v5	0.100000	1	0	0	absent	1	863	80.011
ams2	Crossover_4	1.0-rc12	20101106.134223	experimental	4	0	2	2v5	0.100000	1	0	0	absent	1	854	80.009
ams2	Crossover_4	1.0-rc12	20101106.134227	experimental	5	1	2	2v5	0.100000	1	0	0	present	1	559	80.003
ams2	Crossover_4	1.0-rc12	20101106.134231	experimental	6	0	8	orientation	0.700000	1	0	0	absent	1	794	80.009
ams2	Crossover_4	1.0-rc12	20101106.134235	experimental	7	0	1	2v5	0.100000	1	0	0	absent	1	515	80.006
ams2	Crossover_4	1.0-rc12	20101106.134238	experimental	8	1	1	orientation	0.700000	1	0	0	present	1	542	80.013
ams2	Crossover_4	1.0-rc12	20101106.134242	experimental	9	0	8	2v5	0.100000	1	0	0	absent	1	490	80.008
ams2	Crossover_4	1.0-rc12	20101106.134246	experimental	10	0	1	orientation	0.700000	1	0	0	absent	1	448	80.011
ams2	Crossover_4	1.0-rc12	20101106.134249	experimental	11	0	8	orientation	0.700000	1	0	0	absent	1	550	80.006
ams2	Crossover_4	1.0-rc12	20101106.134253	experimental	12	0	1	orientation	0.700000	1	0	0	absent	1	415	80.005
ams2	Crossover_4	1.0-rc12	20101106.134256	experimental	13	1	4	orientation	0.700000	1	0	0	absent	0	534	80.008
ams2	Crossover_4	1.0-rc12	20101106.134300	experimental	14	1	4	2v5	0.100000	1	0	0	present	1	666	80.015
ams2	Crossover_4	1.0-rc12	20101106.134304	experimental	15	0	8	2v5	0.100000	1	0	0	absent	1	1859	80.003
ams2	Crossover_4	1.0-rc12	20101106.134309	experimental	16	0	2	orientation	0.700000	1	0	0	absent	1	433	80.003
ams2	Crossover_4	1.0-rc12	20101106.134312	experimental	17	0	1	2v5	0.100000	1	0	0	absent	1	391	80.005
ams2	Crossover_4	1.0-rc12	20101106.134316	experimental	18	1	1	2v5	0.100000	1	0	0	present	1	564	80.007
ams2	Crossover_4	1.0-rc12	20101106.134320	experimental	19	1	8	orientation	0.700000	1	0	0	absent	0	450	80.011
ams2	Crossover_4	1.0-rc12	20101106.134323	experimental	20	0	4	orientation	0.700000	1	0	0	absent	1	465	80.014
ams2	Crossover_4	1.0-rc12	20101106.134327	experimental	21	1	1	orientation	0.700000	1	0	0	present	1	425	80.005
ams2	Crossover_4	1.0-rc12	20101106.134330	experimental	22	1	2	orientation	0.700000	1	0	0	absent	0	432	80.004
ams2	Crossover_4	1.0-rc12	20101106.134334	experimental	23	0	8	2v5	0.100000	1	0	0	absent	1	673	80.001
ams2	Crossover_4	1.0-rc12	20101106.134338	experimental	24	1	4	2v5	0.100000	1	0	0	present	1	566	80.005
ams2	Crossover_4	1.0-rc12	20101106.134341	experimental	25	1	4	orientation	0.700000	1	0	0	absent	0	903	80.002
ams2	Crossover_4	1.0-rc12	20101106.134345	experimental	26	1	2	2v5	0.100000	1	0	0	present	1	743	80.003
ams2	Crossover_4	1.0-rc12	20101106.134349	experimental	27	0	4	orientation	0.700000	1	0	0	present	0	588	80.006
ams2	Crossover_4	1.0-rc12	20101106.134353	experimental	28	1	2	orientation	0.700000	1	0	0	present	1	458	80.009
ams2	Crossover_4	1.0-rc12	20101106.134356	experimental	29	0	2	orientation	0.700000	1	0	0	absent	1	424	80.000
ams2	Crossover_4	1.0-rc12	20101106.134400	experimental	30	1	1	2v5	0.100000	1	0	0	present	1	698	80.006
ams2	Crossover_4	1.0-rc12	20101106.134404	experimental	31	0	2	2v5	0.100000	1	0	0	absent	1	576	80.006
ams2	Crossover_4	1.0-rc12	20101106.134407	experimental	32	0	8	2v5	0.100000	1	0	0	absent	1	537	80.014
ams2	Crossover_4	1.0-rc12	20101106.134411	experimental	33	1	8	2v5	0.100000	1	0	0	absent	0	566	80.013
ams2	Crossover_4	1.0-rc12	20101106.134415	experimental	34	0	1	2v5	0.100000	1	0	0	absent	1	758	80.006
ams2	Crossover_4	1.0-rc12	20101106.134419	experimental	35	1	4	2v5	0.100000	1	0	0	present	1	654	80.009
ams2	Crossover_4	1.0-rc12	20101106.134422	experimental	36	1	4	orientation	0.700000	1	0	0	present	1	676	80.004
ams2	Crossover_4	1.0-rc12	20101106.134426	experimental	37	0	4	orientation	0.700000	1	0	0	absent	1	550	80.010
ams2	Crossover_4	1.0-rc12	20101106.134430	experimental	38	0	2	2v5	0.100000	1	0	0	absent	1	582	79.999
ams2	Crossover_4	1.0-rc12	20101106.134434	experimental	39	0	1	orientation	0.700000	1	0	0	present	0	591	80.002
ams2	Crossover_4	1.0-rc12	20101106.134437	experimental	40	1	1	orientation	0.700000	1	0	0	present	1	559	80.020
ams2	Crossover_4	1.0-rc12	20101106.134441	experimental	41	0	8	orientation	0.700000	1	0	0	absent	1	710	79.992
ams2	Crossover_4	1.0-rc12	20101106.134445	experimental	42	1	8	orientation	0.700000	1	0	0	present	1	484	80.011
ams2	Crossover_4	1.0-rc12	20101106.134448	experimental	43	0	2	2v5	0.100000	1	0	0	absent	1	644	80.015
ams2	Crossover_4	1.0-rc12	20101106.134452	experimental	44	0	2	2v5	0.100000	1	0	0	absent	1	1449	80.011
ams2	Crossover_4	1.0-rc12	20101106.134457	experimental	45	1	8	orientation	0.700000	1	0	0	absent	0	751	80.004
ams2	Crossover_4	1.0-rc12	20101106.134501	experimental	46	0	2	orientation	0.700000	1	0	0	absent	1	591	80.011
ams2	Crossover_4	1.0-rc12	20101106.134504	experimental	47	0	1	2v5	0.100000	1	0	0	absent	1	442	80.002
ams2	Crossover_4	1.0-rc12	20101106.134508	experimental	48	0	1	orientation	0.700000	1	0	0	present	0	540	80.009
ams2	Crossover_4	1.0-rc12	20101106.134512	experimental	49	0	4	2v5	0.100000	1	0	0	absent	1	482	80.007
ams2	Crossover_4	1.0-rc12	20101106.134515	experimental	50	0	8	orientation	0.700000	1	0	0	absent	1	499	80.004
ams2	Crossover_4	1.0-rc12	20101106.134703	experimental	51	0	2	orientation	0.700000	1	0	0	absent	1	531	80.008
ams2	Crossover_4	1.0-rc12	20101106.134707	experimental	52	0	1	orientation	0.700000	1	0	0	absent	1	525	79.998
ams2	Crossover_4	1.0-rc12	20101106.134710	experimental	53	1	8	orientation	0.700000	1	0	0	present	1	533	80.004
ams2	Crossover_4	1.0-rc12	20101106.134714	experimental	54	1	8	orientation	0.700000	1	0	0	present	1	508	80.002
ams2	Crossover_4	1.0-rc12	20101106.134718	experimental	55	0	2	2v5	0.100000	1	0	0	absent	1	431	80.017
ams2	Crossover_4	1.0-rc12	20101106.134721	experimental	56	1	1	orientation	0.700000	1	0	0	present	1	517	80.002
ams2	Crossover_4	1.0-rc12	20101106.134725	experimental	57	1	2	2v5	0.100000	1	0	0	absent	0	549	80.007
ams2	Crossover_4	1.0-rc12	20101106.134728	experimental	58	0	8	orientation	0.700000	1	0	0	absent	1	566	80.003
ams2	Crossover_4	1.0-rc12	20101106.134732	experimental	59	1	1	orientation	0.700000	1	0	0	present	1	492	80.007
ams2	Crossover_4	1.0-rc12	20101106.134736	experimental	60	0	1	2v5	0.100000	1	0	0	absent	1	490	80.011
ams2	Crossover_4	1.0-rc12	20101106.134739	experimental	61	0	4	orientation	0.700000	1	0	0	absent	1	584	80.016
ams2	Crossover_4	1.0-rc12	20101106.134743	experimental	62	0	4	orientation	0.700000	1	0	0	absent	1	486	80.005
ams2	Crossover_4	1.0-rc12	20101106.134747	experimental	63	0	4	orientation	0.700000	1	0	0	absent	1	548	80.004
ams2	Crossover_4	1.0-rc12	20101106.134750	experimental	64	0	8	orientation	0.700000	1	0	0	absent	1	518	80.015
ams2	Crossover_4	1.0-rc12	20101106.134754	experimental	65	1	2	2v5	0.100000	1	0	0	present	1	605	80.006
ams2	Crossover_4	1.0-rc12	20101106.134758	experimental	66	1	4	2v5	0.100000	1	0	0	present	1	555	80.006
ams2	Crossover_4	1.0-rc12	20101106.134801	experimental	67	1	4	2v5	0.100000	1	0	0	present	1	489	80.008
ams2	Crossover_4	1.0-rc12	20101106.134805	experimental	68	1	2	orientation	0.700000	1	0	0	present	1	483	80.007
ams2	Crossover_4	1.0-rc12	20101106.134808	experimental	69	0	4	orientation	0.700000	1	0	0	absent	1	595	80.004
ams2	Crossover_4	1.0-rc12	20101106.134812	experimental	70	0	1	2v5	0.100000	1	0	0	absent	1	591	79.994
ams2	Crossover_4	1.0-rc12	20101106.134816	experimental	71	1	2	2v5	0.100000	1	0	0	present	1	540	80.009
ams2	Crossover_4	1.0-rc12	20101106.134820	experimental	72	0	2	orientation	0.700000	1	0	0	absent	1	606	80.009
ams2	Crossover_4	1.0-rc12	20101106.134823	experimental	73	0	8	orientation	0.700000	1	0	0	absent	1	737	80.008
ams2	Crossover_4	1.0-rc12	20101106.134827	experimental	74	1	2	orientation	0.700000	1	0	0	absent	0	569	80.008
ams2	Crossover_4	1.0-rc12	20101106.134831	experimental	75	1	4	orientation	0.700000	1	0	0	present	1	640	80.004
ams2	Crossover_4	1.0-rc12	20101106.134835	experimental	76	1	1	2v5	0.100000	1	0	0	present	1	555	80.008
ams2	Crossover_4	1.0-rc12	20101106.134838	experimental	77	1	8	orientation	0.700000	1	0	0	present	1	542	79.991
ams2	Crossover_4	1.0-rc12	20101106.134842	experimental	78	0	1	orientation	0.700000	1	0	0	absent	1	478	79.998
ams2	Crossover_4	1.0-rc12	20101106.134846	experimental	79	0	8	2v5	0.100000	1	0	0	absent	1	762	79.996
ams2	Crossover_4	1.0-rc12	20101106.134849	experimental	80	1	4	orientation	0.700000	1	0	0	present	1	475	80.005
ams2	Crossover_4	1.0-rc12	20101106.134853	experimental	81	1	1	2v5	0.100000	1	0	0	present	1	533	80.009
ams2	Crossover_4	1.0-rc12	20101106.134857	experimental	82	1	4	orientation	0.700000	1	0	0	absent	0	498	80.012
ams2	Crossover_4	1.0-rc12	20101106.134900	experimental	83	0	1	orientation	0.700000	1	0	0	absent	1	526	80.012
ams2	Crossover_4	1.0-rc12	20101106.134904	experimental	84	1	1	2v5	0.100000	1	0	0	present	1	515	80.005
ams2	Crossover_4	1.0-rc12	20101106.134908	experimental	85	0	8	2v5	0.100000	1	0	0	present	0	656	80.015
ams2	Crossover_4	1.0-rc12	20101106.134911	experimental	86	0	2	orientation	0.700000	1	0	0	absent	1	561	80.008
ams2	Crossover_4	1.0-rc12	20101106.134915	experimental	87	0	8	orientation	0.700000	1	0	0	present	0	490	80.008
ams2	Crossover_4	1.0-rc12	20101106.134919	experimental	88	1	2	2v5	0.100000	1	0	0	present	1	659	80.010
ams2	Crossover_4	1.0-rc12	20101106.134923	experimental	89	0	4	2v5	0.100000	1	0	0	absent	1	600	80.001
ams2	Crossover_4	1.0-rc12	20101106.134926	experimental	90	1	4	2v5	0.100000	1	0	0	absent	0	534	80.000
ams2	Crossover_4	1.0-rc12	20101106.134930	experimental	91	0	2	orientation	0.700000	1	0	0	absent	1	474	80.003
ams2	Crossover_4	1.0-rc12	20101106.134933	experimental	92	1	1	orientation	0.700000	1	0	0	present	1	468	79.999
ams2	Crossover_4	1.0-rc12	20101106.134937	experimental	93	0	2	orientation	0.700000	1	0	0	absent	1	491	79.997
ams2	Crossover_4	1.0-rc12	20101106.134941	experimental	94	1	8	2v5	0.100000	1	0	0	present	1	543	80.015
ams2	Crossover_4	1.0-rc12	20101106.134944	experimental	95	0	4	2v5	0.100000	1	0	0	absent	1	558	80.005
ams2	Crossover_4	1.0-rc12	20101106.134948	experimental	96	0	2	2v5	0.100000	1	0	0	absent	1	582	80.004
ams2	Crossover_4	1.0-rc12	20101106.134952	experimental	97	0	8	orientation	0.700000	1	0	0	absent	1	548	80.010
ams2	Crossover_4	1.0-rc12	20101106.134955	experimental	98	1	1	orientation	0.700000	1	0	0	present	1	451	80.014
ams2	Crossover_4	1.0-rc12	20101106.134959	experimental	99	1	8	orientation	0.700000	1	0	0	present	1	424	80.006
ams2	Crossover_4	1.0-rc12	20101106.135003	experimental	100	1	2	2v5	0.100000	1	0	0	present	1	798	80.002
ams2	Crossover_4	1.0-rc12	20101106.135029	experimental	101	1	4	orientation	0.700000	1	0	0	present	1	810	80.007
ams2	Crossover_4	1.0-rc12	20101106.135033	experimental	102	1	4	orientation	0.700000	1	0	0	present	1	427	80.012
ams2	Crossover_4	1.0-rc12	20101106.135037	experimental	103	1	8	2v5	0.100000	1	0	0	present	1	778	80.003
ams2	Crossover_4	1.0-rc12	20101106.135041	experimental	104	0	1	2v5	0.100000	1	0	0	absent	1	707	80.002
ams2	Crossover_4	1.0-rc12	20101106.135044	experimental	105	0	1	2v5	0.100000	1	0	0	absent	1	493	80.010
ams2	Crossover_4	1.0-rc12	20101106.135048	experimental	106	0	4	2v5	0.100000	1	0	0	absent	1	734	80.004
ams2	Crossover_4	1.0-rc12	20101106.135052	experimental	107	0	1	orientation	0.700000	1	0	0	absent	1	531	80.001
ams2	Crossover_4	1.0-rc12	20101106.135056	experimental	108	0	4	2v5	0.100000	1	0	0	absent	1	532	80.005
ams2	Crossover_4	1.0-rc12	20101106.135059	experimental	109	0	4	2v5	0.100000	1	0	0	absent	1	633	79.996
ams2	Crossover_4	1.0-rc12	20101106.135103	experimental	110	0	2	2v5	0.100000	1	0	0	absent	1	1492	79.998
ams2	Crossover_4	1.0-rc12	20101106.135108	experimental	111	0	2	orientation	0.700000	1	0	0	present	0	618	80.006
ams2	Crossover_4	1.0-rc12	20101106.135111	experimental	112	1	1	orientation	0.700000	1	0	0	present	1	1094	80.010
ams2	Crossover_4	1.0-rc12	20101106.135116	experimental	113	0	1	orientation	0.700000	1	0	0	absent	1	450	80.020
ams2	Crossover_4	1.0-rc12	20101106.135119	experimental	114	0	8	orientation	0.700000	1	0	0	absent	1	561	79.995
ams2	Crossover_4	1.0-rc12	20101106.135123	experimental	115	0	1	2v5	0.100000	1	0	0	absent	1	532	79.996
ams2	Crossover_4	1.0-rc12	20101106.135126	experimental	116	0	8	2v5	0.100000	1	0	0	absent	1	520	80.005
ams2	Crossover_4	1.0-rc12	20101106.135130	experimental	117	0	8	2v5	0.100000	1	0	0	absent	1	534	79.998
ams2	Crossover_4	1.0-rc12	20101106.135134	experimental	118	1	4	2v5	0.100000	1	0	0	present	1	564	80.010
ams2	Crossover_4	1.0-rc12	20101106.135137	experimental	119	1	8	2v5	0.100000	1	0	0	present	1	911	80.003
ams2	Crossover_4	1.0-rc12	20101106.135141	experimental	120	1	8	2v5	0.100000	1	0	0	absent	0	695	80.002
ams2	Crossover_4	1.0-rc12	20101106.135145	experimental	121	1	2	2v5	0.100000	1	0	0	present	1	517	79.998
ams2	Crossover_4	1.0-rc12	20101106.135149	experimental	122	0	8	2v5	0.100000	1	0	0	present	0	700	80.002
ams2	Crossover_4	1.0-rc12	20101106.135153	experimental	123	1	4	orientation	0.700000	1	0	0	present	1	549	80.001
ams2	Crossover_4	1.0-rc12	20101106.135156	experimental	124	0	8	2v5	0.100000	1	0	0	absent	1	818	80.007
ams2	Crossover_4	1.0-rc12	20101106.135200	experimental	125	1	2	2v5	0.100000	1	0	0	present	1	442	80.016
ams2	Crossover_4	1.0-rc12	20101106.135204	experimental	126	0	8	2v5	0.100000	1	0	0	absent	1	1309	80.005
ams2	Crossover_4	1.0-rc12	20101106.135208	experimental	127	0	4	2v5	0.100000	1	0	0	absent	1	686	79.999
ams2	Crossover_4	1.0-rc12	20101106.135212	experimental	128	1	1	2v5	0.100000	1	0	0	present	1	524	80.002
ams2	Crossover_4	1.0-rc12	20101106.135216	experimental	129	1	2	2v5	0.100000	1	0	0	present	1	497	80.006
ams2	Crossover_4	1.0-rc12	20101106.135219	experimental	130	0	2	2v5	0.100000	1	0	0	present	0	550	80.013
ams2	Crossover_4	1.0-rc12	20101106.135223	experimental	131	1	1	2v5	0.100000	1	0	0	present	1	456	79.999
ams2	Crossover_4	1.0-rc12	20101106.135227	experimental	132	0	1	2v5	0.100000	1	0	0	absent	1	625	80.007
ams2	Crossover_4	1.0-rc12	20101106.135230	experimental	133	0	8	2v5	0.100000	1	0	0	present	0	632	80.003
ams2	Crossover_4	1.0-rc12	20101106.135234	experimental	134	0	4	orientation	0.700000	1	0	0	absent	1	549	80.004
ams2	Crossover_4	1.0-rc12	20101106.135238	experimental	135	1	8	orientation	0.700000	1	0	0	present	1	440	79.998
ams2	Crossover_4	1.0-rc12	20101106.135241	experimental	136	0	8	orientation	0.700000	1	0	0	absent	1	636	80.004
ams2	Crossover_4	1.0-rc12	20101106.135245	experimental	137	1	2	orientation	0.700000	1	0	0	present	1	474	80.004
ams2	Crossover_4	1.0-rc12	20101106.135249	experimental	138	0	2	2v5	0.100000	1	0	0	absent	1	635	80.015
ams2	Crossover_4	1.0-rc12	20101106.135252	experimental	139	1	1	orientation	0.700000	1	0	0	absent	0	778	80.013
ams2	Crossover_4	1.0-rc12	20101106.135256	experimental	140	1	2	2v5	0.100000	1	0	0	present	1	777	80.017
ams2	Crossover_4	1.0-rc12	20101106.135300	experimental	141	1	1	2v5	0.100000	1	0	0	present	1	499	79.999
ams2	Crossover_4	1.0-rc12	20101106.135304	experimental	142	0	1	orientation	0.700000	1	0	0	absent	1	565	79.999
ams2	Crossover_4	1.0-rc12	20101106.135307	experimental	143	1	4	orientation	0.700000	1	0	0	absent	0	594	79.995
ams2	Crossover_4	1.0-rc12	20101106.135311	experimental	144	0	8	orientation	0.700000	1	0	0	present	0	498	80.000
ams2	Crossover_4	1.0-rc12	20101106.135315	experimental	145	0	2	orientation	0.700000	1	0	0	absent	1	566	80.015
ams2	Crossover_4	1.0-rc12	20101106.135318	experimental	146	1	1	2v5	0.100000	1	0	0	present	1	525	80.012
ams2	Crossover_4	1.0-rc12	20101106.135322	experimental	147	0	1	2v5	0.100000	1	0	0	absent	1	1402	80.016
ams2	Crossover_4	1.0-rc12	20101106.135327	experimental	148	0	1	2v5	0.100000	1	0	0	absent	1	559	80.017
ams2	Crossover_4	1.0-rc12	20101106.135330	experimental	149	0	4	2v5	0.100000	1	0	0	present	0	751	80.000
ams2	Crossover_4	1.0-rc12	20101106.135334	experimental	150	1	4	2v5	0.100000	1	0	0	absent	0	560	79.999
ams2	Crossover_4	1.0-rc12	20101106.135608	experimental	151	0	1	orientation	0.700000	1	0	0	absent	1	505	79.997
ams2	Crossover_4	1.0-rc12	20101106.135611	experimental	152	1	8	2v5	0.100000	1	0	0	present	1	653	80.011
ams2	Crossover_4	1.0-rc12	20101106.135615	experimental	153	0	8	2v5	0.100000	1	0	0	absent	1	787	80.017
ams2	Crossover_4	1.0-rc12	20101106.135619	experimental	154	0	2	orientation	0.700000	1	0	0	absent	1	555	80.009
ams2	Crossover_4	1.0-rc12	20101106.135623	experimental	155	1	8	orientation	0.700000	1	0	0	present	1	458	80.011
ams2	Crossover_4	1.0-rc12	20101106.135626	experimental	156	0	1	2v5	0.100000	1	0	0	absent	1	650	79.991
ams2	Crossover_4	1.0-rc12	20101106.135630	experimental	157	0	2	orientation	0.700000	1	0	0	absent	1	623	80.014
ams2	Crossover_4	1.0-rc12	20101106.135634	experimental	158	0	4	orientation	0.700000	1	0	0	absent	1	568	80.019
ams2	Crossover_4	1.0-rc12	20101106.135637	experimental	159	1	4	2v5	0.100000	1	0	0	present	1	550	80.005
ams2	Crossover_4	1.0-rc12	20101106.135641	experimental	160	0	1	orientation	0.700000	1	0	0	absent	1	505	80.011
ams2	Crossover_4	1.0-rc12	20101106.135645	experimental	161	0	2	orientation	0.700000	1	0	0	absent	1	454	80.012
ams2	Crossover_4	1.0-rc12	20101106.135648	experimental	162	0	2	2v5	0.100000	1	0	0	absent	1	533	80.004
ams2	Crossover_4	1.0-rc12	20101106.135652	experimental	163	0	2	2v5	0.100000	1	0	0	absent	1	515	80.011
ams2	Crossover_4	1.0-rc12	20101106.135655	experimental	164	0	2	orientation	0.700000	1	0	0	absent	1	459	80.000
ams2	Crossover_4	1.0-rc12	20101106.135659	experimental	165	1	1	2v5	0.100000	1	0	0	present	1	499	79.999
ams2	Crossover_4	1.0-rc12	20101106.135703	experimental	166	1	4	orientation	0.700000	1	0	0	present	1	615	80.008
ams2	Crossover_4	1.0-rc12	20101106.135706	experimental	167	0	1	orientation	0.700000	1	0	0	absent	1	477	80.003
ams2	Crossover_4	1.0-rc12	20101106.135710	experimental	168	1	2	2v5	0.100000	1	0	0	present	1	505	80.005
ams2	Crossover_4	1.0-rc12	20101106.135714	experimental	169	0	8	2v5	0.100000	1	0	0	present	0	700	80.001
ams2	Crossover_4	1.0-rc12	20101106.135717	experimental	170	0	8	2v5	0.100000	1	0	0	absent	1	610	80.008
ams2	Crossover_4	1.0-rc12	20101106.135721	experimental	171	1	8	2v5	0.100000	1	0	0	present	1	493	80.015
ams2	Crossover_4	1.0-rc12	20101106.135725	experimental	172	0	2	orientation	0.700000	1	0	0	absent	1	505	80.017
ams2	Crossover_4	1.0-rc12	20101106.135728	experimental	173	1	1	orientation	0.700000	1	0	0	present	1	543	80.007
ams2	Crossover_4	1.0-rc12	20101106.135732	experimental	174	0	2	2v5	0.100000	1	0	0	absent	1	913	79.999
ams2	Crossover_4	1.0-rc12	20101106.135736	experimental	175	1	4	2v5	0.100000	1	0	0	present	1	745	79.998
ams2	Crossover_4	1.0-rc12	20101106.135740	experimental	176	0	4	orientation	0.700000	1	0	0	absent	1	532	80.003
ams2	Crossover_4	1.0-rc12	20101106.135744	experimental	177	0	1	orientation	0.700000	1	0	0	absent	1	423	80.003
ams2	Crossover_4	1.0-rc12	20101106.135747	experimental	178	1	1	2v5	0.100000	1	0	0	present	1	456	80.015
ams2	Crossover_4	1.0-rc12	20101106.135751	experimental	179	0	1	orientation	0.700000	1	0	0	absent	1	385	80.014
ams2	Crossover_4	1.0-rc12	20101106.135754	experimental	180	1	2	orientation	0.700000	1	0	0	present	1	609	80.000
ams2	Crossover_4	1.0-rc12	20101106.135758	experimental	181	1	4	orientation	0.700000	1	0	0	present	1	492	80.006
ams2	Crossover_4	1.0-rc12	20101106.135802	experimental	182	0	2	2v5	0.100000	1	0	0	present	0	544	80.005
ams2	Crossover_4	1.0-rc12	20101106.135805	experimental	183	0	2	orientation	0.700000	1	0	0	present	0	535	80.004
ams2	Crossover_4	1.0-rc12	20101106.135809	experimental	184	0	1	2v5	0.100000	1	0	0	absent	1	501	79.997
ams2	Crossover_4	1.0-rc12	20101106.135812	experimental	185	0	4	2v5	0.100000	1	0	0	present	0	634	80.006
ams2	Crossover_4	1.0-rc12	20101106.135816	experimental	186	1	8	2v5	0.100000	1	0	0	absent	0	669	80.002
ams2	Crossover_4	1.0-rc12	20101106.135820	experimental	187	0	2	2v5	0.100000	1	0	0	absent	1	616	80.016
ams2	Crossover_4	1.0-rc12	20101106.135824	experimental	188	0	2	orientation	0.700000	1	0	0	absent	1	614	80.006
ams2	Crossover_4	1.0-rc12	20101106.135827	experimental	189	0	1	orientation	0.700000	1	0	0	absent	1	408	80.004
ams2	Crossover_4	1.0-rc12	20101106.135831	experimental	190	1	2	orientation	0.700000	1	0	0	present	1	515	80.005
ams2	Crossover_4	1.0-rc12	20101106.135835	experimental	191	1	1	orientation	0.700000	1	0	0	present	1	466	80.006
ams2	Crossover_4	1.0-rc12	20101106.135838	experimental	192	1	8	orientation	0.700000	1	0	0	absent	0	2344	79.998
ams2	Crossover_4	1.0-rc12	20101106.135844	experimental	193	1	4	2v5	0.100000	1	0	0	present	1	500	80.003
ams2	Crossover_4	1.0-rc12	20101106.135847	experimental	194	1	4	2v5	0.100000	1	0	0	present	1	566	79.998
ams2	Crossover_4	1.0-rc12	20101106.135851	experimental	195	0	8	2v5	0.100000	1	0	0	absent	1	611	80.005
ams2	Crossover_4	1.0-rc12	20101106.135855	experimental	196	1	8	2v5	0.100000	1	0	0	absent	0	802	79.997
ams2	Crossover_4	1.0-rc12	20101106.135859	experimental	197	1	1	2v5	0.100000	1	0	0	present	1	501	80.011
ams2	Crossover_4	1.0-rc12	20101106.135902	experimental	198	1	8	orientation	0.700000	1	0	0	present	1	499	80.006
ams2	Crossover_4	1.0-rc12	20101106.135906	experimental	199	0	1	orientation	0.700000	1	0	0	present	0	935	80.015
ams2	Crossover_4	1.0-rc12	20101106.135910	experimental	200	0	1	2v5	0.100000	1	0	0	absent	1	564	80.007
ams2	Crossover_4	1.0-rc12	20101106.140404	experimental	201	1	2	2v5	0.100000	1	0	0	present	1	604	80.013
ams2	Crossover_4	1.0-rc12	20101106.140409	experimental	202	0	4	orientation	0.700000	1	0	0	absent	1	532	80.022
ams2	Crossover_4	1.0-rc12	20101106.140412	experimental	203	0	1	2v5	0.100000	1	0	0	present	0	559	79.996
ams2	Crossover_4	1.0-rc12	20101106.140416	experimental	204	0	8	orientation	0.700000	1	0	0	absent	1	529	80.012
ams2	Crossover_4	1.0-rc12	20101106.140420	experimental	205	0	8	2v5	0.100000	1	0	0	absent	1	598	80.009
ams2	Crossover_4	1.0-rc12	20101106.140423	experimental	206	1	2	2v5	0.100000	1	0	0	present	1	517	80.006
ams2	Crossover_4	1.0-rc12	20101106.140427	experimental	207	1	2	orientation	0.700000	1	0	0	present	1	432	80.006
ams2	Crossover_4	1.0-rc12	20101106.140430	experimental	208	0	4	orientation	0.700000	1	0	0	absent	1	532	80.008
ams2	Crossover_4	1.0-rc12	20101106.140434	experimental	209	1	8	2v5	0.100000	1	0	0	present	1	490	80.008
ams2	Crossover_4	1.0-rc12	20101106.140438	experimental	210	1	2	orientation	0.700000	1	0	0	absent	0	924	80.001
ams2	Crossover_4	1.0-rc12	20101106.140442	experimental	211	1	2	orientation	0.700000	1	0	0	absent	0	918	80.005
ams2	Crossover_4	1.0-rc12	20101106.140446	experimental	212	1	2	orientation	0.700000	1	0	0	absent	0	681	80.009
ams2	Crossover_4	1.0-rc12	20101106.140450	experimental	213	1	1	orientation	0.700000	1	0	0	present	1	786	80.009
ams2	Crossover_4	1.0-rc12	20101106.140454	experimental	214	0	1	orientation	0.700000	1	0	0	absent	1	485	80.007
ams2	Crossover_4	1.0-rc12	20101106.140457	experimental	215	1	2	orientation	0.700000	1	0	0	present	1	434	80.013
ams2	Crossover_4	1.0-rc12	20101106.140501	experimental	216	1	4	orientation	0.700000	1	0	0	present	1	540	79.995
ams2	Crossover_4	1.0-rc12	20101106.140504	experimental	217	0	8	orientation	0.700000	1	0	0	absent	1	559	80.008
ams2	Crossover_4	1.0-rc12	20101106.140508	experimental	218	0	2	2v5	0.100000	1	0	0	absent	1	566	80.003
ams2	Crossover_4	1.0-rc12	20101106.140512	experimental	219	0	4	2v5	0.100000	1	0	0	absent	1	590	80.008
ams2	Crossover_4	1.0-rc12	20101106.140515	experimental	220	0	1	orientation	0.700000	1	0	0	absent	1	524	80.003
ams2	Crossover_4	1.0-rc12	20101106.140519	experimental	221	0	4	2v5	0.100000	1	0	0	absent	1	534	80.018
ams2	Crossover_4	1.0-rc12	20101106.140523	experimental	222	0	4	orientation	0.700000	1	0	0	absent	1	448	80.005
ams2	Crossover_4	1.0-rc12	20101106.140526	experimental	223	1	8	2v5	0.100000	1	0	0	absent	0	509	80.010
ams2	Crossover_4	1.0-rc12	20101106.140530	experimental	224	0	1	2v5	0.100000	1	0	0	absent	1	498	79.994
ams2	Crossover_4	1.0-rc12	20101106.140534	experimental	225	0	4	orientation	0.700000	1	0	0	absent	1	457	80.002
ams2	Crossover_4	1.0-rc12	20101106.140537	experimental	226	1	2	orientation	0.700000	1	0	0	present	1	470	80.013
ams2	Crossover_4	1.0-rc12	20101106.140541	experimental	227	1	2	orientation	0.700000	1	0	0	present	1	514	80.006
ams2	Crossover_4	1.0-rc12	20101106.140544	experimental	228	0	8	orientation	0.700000	1	0	0	absent	1	518	80.009
ams2	Crossover_4	1.0-rc12	20101106.140548	experimental	229	1	8	2v5	0.100000	1	0	0	present	1	560	80.004
ams2	Crossover_4	1.0-rc12	20101106.140552	experimental	230	1	4	2v5	0.100000	1	0	0	present	1	547	79.998
ams2	Crossover_4	1.0-rc12	20101106.140555	experimental	231	0	4	orientation	0.700000	1	0	0	absent	1	500	80.004
ams2	Crossover_4	1.0-rc12	20101106.140559	experimental	232	0	4	2v5	0.100000	1	0	0	present	0	770	80.002
ams2	Crossover_4	1.0-rc12	20101106.140603	experimental	233	0	4	2v5	0.100000	1	0	0	absent	1	481	80.019
ams2	Crossover_4	1.0-rc12	20101106.140607	experimental	234	1	1	orientation	0.700000	1	0	0	present	1	589	80.014
ams2	Crossover_4	1.0-rc12	20101106.140610	experimental	235	1	4	2v5	0.100000	1	0	0	present	1	518	80.002
ams2	Crossover_4	1.0-rc12	20101106.140614	experimental	236	1	4	orientation	0.700000	1	0	0	present	1	531	80.012
ams2	Crossover_4	1.0-rc12	20101106.140618	experimental	237	0	2	orientation	0.700000	1	0	0	absent	1	466	80.013
ams2	Crossover_4	1.0-rc12	20101106.140621	experimental	238	0	8	orientation	0.700000	1	0	0	absent	1	551	80.013
ams2	Crossover_4	1.0-rc12	20101106.140625	experimental	239	1	8	orientation	0.700000	1	0	0	present	1	608	80.003
ams2	Crossover_4	1.0-rc12	20101106.140629	experimental	240	1	1	orientation	0.700000	1	0	0	present	1	499	80.008
ams2	Crossover_4	1.0-rc12	20101106.140632	experimental	241	1	2	2v5	0.100000	1	0	0	present	1	549	80.014
ams2	Crossover_4	1.0-rc12	20101106.140636	experimental	242	1	4	orientation	0.700000	1	0	0	present	1	423	80.006
ams2	Crossover_4	1.0-rc12	20101106.140640	experimental	243	0	1	2v5	0.100000	1	0	0	present	0	542	79.999
ams2	Crossover_4	1.0-rc12	20101106.140643	experimental	244	0	4	2v5	0.100000	1	0	0	absent	1	618	80.013
ams2	Crossover_4	1.0-rc12	20101106.140647	experimental	245	1	1	orientation	0.700000	1	0	0	present	1	492	79.998
ams2	Crossover_4	1.0-rc12	20101106.140651	experimental	246	1	8	orientation	0.700000	1	0	0	present	1	449	80.018
ams2	Crossover_4	1.0-rc12	20101106.140654	experimental	247	1	8	2v5	0.100000	1	0	0	absent	0	685	80.006
ams2	Crossover_4	1.0-rc12	20101106.140658	experimental	248	1	1	2v5	0.100000	1	0	0	present	1	506	80.006
ams2	Crossover_4	1.0-rc12	20101106.140702	experimental	249	1	4	2v5	0.100000	1	0	0	present	1	757	80.012
ams2	Crossover_4	1.0-rc12	20101106.140705	experimental	250	0	2	2v5	0.100000	1	0	0	absent	1	608	80.009
ams2	Crossover_4	1.0-rc12	20101106.140833	experimental	251	1	2	orientation	0.700000	1	0	0	present	1	506	80.002
ams2	Crossover_4	1.0-rc12	20101106.140837	experimental	252	0	4	orientation	0.700000	1	0	0	absent	1	431	80.004
ams2	Crossover_4	1.0-rc12	20101106.140840	experimental	253	1	2	orientation	0.700000	1	0	0	present	1	398	80.009
ams2	Crossover_4	1.0-rc12	20101106.140844	experimental	254	0	4	2v5	0.100000	1	0	0	absent	1	517	80.006
ams2	Crossover_4	1.0-rc12	20101106.140847	experimental	255	0	8	orientation	0.700000	1	0	0	absent	1	491	80.005
ams2	Crossover_4	1.0-rc12	20101106.140851	experimental	256	1	1	orientation	0.700000	1	0	0	present	1	457	80.006
ams2	Crossover_4	1.0-rc12	20101106.140854	experimental	257	1	1	2v5	0.100000	1	0	0	present	1	583	80.000
ams2	Crossover_4	1.0-rc12	20101106.140858	experimental	258	0	4	2v5	0.100000	1	0	0	absent	1	618	80.014
ams2	Crossover_4	1.0-rc12	20101106.140902	experimental	259	0	2	orientation	0.700000	1	0	0	present	0	598	80.006
ams2	Crossover_4	1.0-rc12	20101106.140906	experimental	260	1	8	2v5	0.100000	1	0	0	present	1	1218	79.997
ams2	Crossover_4	1.0-rc12	20101106.140910	experimental	261	0	8	2v5	0.100000	1	0	0	present	0	548	79.999
ams2	Crossover_4	1.0-rc12	20101106.140914	experimental	262	0	4	2v5	0.100000	1	0	0	absent	1	592	79.995
ams2	Crossover_4	1.0-rc12	20101106.140917	experimental	263	0	2	2v5	0.100000	1	0	0	absent	1	1415	80.009
ams2	Crossover_4	1.0-rc12	20101106.140922	experimental	264	0	8	orientation	0.700000	1	0	0	present	0	1269	80.002
ams2	Crossover_4	1.0-rc12	20101106.140926	experimental	265	0	2	2v5	0.100000	1	0	0	absent	1	568	80.008
ams2	Crossover_4	1.0-rc12	20101106.140930	experimental	266	1	2	orientation	0.700000	1	0	0	present	1	515	80.010
ams2	Crossover_4	1.0-rc12	20101106.140934	experimental	267	1	1	2v5	0.100000	1	0	0	present	1	527	79.996
ams2	Crossover_4	1.0-rc12	20101106.140937	experimental	268	0	2	orientation	0.700000	1	0	0	absent	1	556	80.014
ams2	Crossover_4	1.0-rc12	20101106.140941	experimental	269	1	4	orientation	0.700000	1	0	0	absent	0	547	80.000
ams2	Crossover_4	1.0-rc12	20101106.140945	experimental	270	0	1	2v5	0.100000	1	0	0	absent	1	524	80.002
ams2	Crossover_4	1.0-rc12	20101106.140948	experimental	271	1	1	orientation	0.700000	1	0	0	absent	0	683	79.993
ams2	Crossover_4	1.0-rc12	20101106.140952	experimental	272	1	4	orientation	0.700000	1	0	0	present	1	432	80.000
ams2	Crossover_4	1.0-rc12	20101106.140956	experimental	273	1	1	2v5	0.100000	1	0	0	present	1	517	80.012
ams2	Crossover_4	1.0-rc12	20101106.140959	experimental	274	1	1	orientation	0.700000	1	0	0	present	1	475	80.005
ams2	Crossover_4	1.0-rc12	20101106.141003	experimental	275	0	1	2v5	0.100000	1	0	0	absent	1	568	80.010
ams2	Crossover_4	1.0-rc12	20101106.141007	experimental	276	1	4	orientation	0.700000	1	0	0	present	1	481	80.010
ams2	Crossover_4	1.0-rc12	20101106.141010	experimental	277	0	8	2v5	0.100000	1	0	0	absent	1	558	80.010
ams2	Crossover_4	1.0-rc12	20101106.141014	experimental	278	0	8	orientation	0.700000	1	0	0	present	0	564	80.018
ams2	Crossover_4	1.0-rc12	20101106.141018	experimental	279	1	2	2v5	0.100000	1	0	0	present	1	570	80.010
ams2	Crossover_4	1.0-rc12	20101106.141021	experimental	280	1	8	orientation	0.700000	1	0	0	absent	0	575	80.010
ams2	Crossover_4	1.0-rc12	20101106.141025	experimental	281	0	4	2v5	0.100000	1	0	0	absent	1	474	80.021
ams2	Crossover_4	1.0-rc12	20101106.141029	experimental	282	1	2	2v5	0.100000	1	0	0	present	1	499	79.991
ams2	Crossover_4	1.0-rc12	20101106.141032	experimental	283	1	1	orientation	0.700000	1	0	0	present	1	560	80.009
ams2	Crossover_4	1.0-rc12	20101106.141036	experimental	284	0	8	2v5	0.100000	1	0	0	absent	1	474	79.995
ams2	Crossover_4	1.0-rc12	20101106.141039	experimental	285	1	1	orientation	0.700000	1	0	0	present	1	520	79.999
ams2	Crossover_4	1.0-rc12	20101106.141043	experimental	286	1	4	orientation	0.700000	1	0	0	present	1	500	80.004
ams2	Crossover_4	1.0-rc12	20101106.141047	experimental	287	0	1	orientation	0.700000	1	0	0	absent	1	465	80.006
ams2	Crossover_4	1.0-rc12	20101106.141050	experimental	288	1	1	orientation	0.700000	1	0	0	present	1	436	80.014
ams2	Crossover_4	1.0-rc12	20101106.141054	experimental	289	1	1	2v5	0.100000	1	0	0	present	1	465	80.013
ams2	Crossover_4	1.0-rc12	20101106.141057	experimental	290	0	2	2v5	0.100000	1	0	0	absent	1	485	80.003
ams2	Crossover_4	1.0-rc12	20101106.141101	experimental	291	0	8	orientation	0.700000	1	0	0	absent	1	528	80.003
ams2	Crossover_4	1.0-rc12	20101106.141105	experimental	292	1	8	2v5	0.100000	1	0	0	absent	0	540	80.006
ams2	Crossover_4	1.0-rc12	20101106.141108	experimental	293	0	4	2v5	0.100000	1	0	0	absent	1	485	80.010
ams2	Crossover_4	1.0-rc12	20101106.141112	experimental	294	1	1	2v5	0.100000	1	0	0	present	1	523	80.007
ams2	Crossover_4	1.0-rc12	20101106.141116	experimental	295	0	1	2v5	0.100000	1	0	0	absent	1	489	80.013
ams2	Crossover_4	1.0-rc12	20101106.141119	experimental	296	1	8	orientation	0.700000	1	0	0	present	1	462	80.010
ams2	Crossover_4	1.0-rc12	20101106.141123	experimental	297	1	8	2v5	0.100000	1	0	0	present	1	665	80.011
ams2	Crossover_4	1.0-rc12	20101106.141127	experimental	298	0	4	orientation	0.700000	1	0	0	absent	1	548	79.996
ams2	Crossover_4	1.0-rc12	20101106.141130	experimental	299	1	2	orientation	0.700000	1	0	0	present	1	451	79.997
ams2	Crossover_4	1.0-rc12	20101106.141134	experimental	300	1	4	2v5	0.100000	1	0	0	absent	0	641	79.998
ams2	Crossover_4	1.0-rc12	20101106.141557	experimental	301	1	8	orientation	0.700000	1	0	0	present	1	541	80.007
ams2	Crossover_4	1.0-rc12	20101106.141601	experimental	302	1	4	2v5	0.100000	1	0	0	present	1	517	80.012
ams2	Crossover_4	1.0-rc12	20101106.141604	experimental	303	1	4	2v5	0.100000	1	0	0	present	1	450	80.013
ams2	Crossover_4	1.0-rc12	20101106.141608	experimental	304	0	1	orientation	0.700000	1	0	0	absent	1	465	80.010
ams2	Crossover_4	1.0-rc12	20101106.141612	experimental	305	0	4	2v5	0.100000	1	0	0	absent	1	549	79.999
ams2	Crossover_4	1.0-rc12	20101106.141615	experimental	306	0	2	2v5	0.100000	1	0	0	absent	1	467	80.002
ams2	Crossover_4	1.0-rc12	20101106.141619	experimental	307	0	1	2v5	0.100000	1	0	0	absent	1	439	79.992
ams2	Crossover_4	1.0-rc12	20101106.141622	experimental	308	1	2	2v5	0.100000	1	0	0	present	1	467	80.005
ams2	Crossover_4	1.0-rc12	20101106.141626	experimental	309	1	2	orientation	0.700000	1	0	0	present	1	659	79.997
ams2	Crossover_4	1.0-rc12	20101106.141630	experimental	310	1	4	orientation	0.700000	1	0	0	present	1	441	80.010
ams2	Crossover_4	1.0-rc12	20101106.141633	experimental	311	1	4	orientation	0.700000	1	0	0	present	1	433	80.016
ams2	Crossover_4	1.0-rc12	20101106.141637	experimental	312	0	4	orientation	0.700000	1	0	0	present	0	422	80.008
ams2	Crossover_4	1.0-rc12	20101106.141640	experimental	313	1	2	orientation	0.700000	1	0	0	absent	0	569	80.006
ams2	Crossover_4	1.0-rc12	20101106.141644	experimental	314	1	1	2v5	0.100000	1	0	0	present	1	433	80.011
ams2	Crossover_4	1.0-rc12	20101106.141648	experimental	315	0	1	2v5	0.100000	1	0	0	absent	1	557	80.014
ams2	Crossover_4	1.0-rc12	20101106.141651	experimental	316	1	8	orientation	0.700000	1	0	0	present	1	459	80.004
ams2	Crossover_4	1.0-rc12	20101106.141655	experimental	317	0	8	2v5	0.100000	1	0	0	absent	1	582	80.008
ams2	Crossover_4	1.0-rc12	20101106.141659	experimental	318	1	8	orientation	0.700000	1	0	0	present	1	423	80.009
ams2	Crossover_4	1.0-rc12	20101106.141702	experimental	319	0	8	2v5	0.100000	1	0	0	absent	1	667	79.998
ams2	Crossover_4	1.0-rc12	20101106.141706	experimental	320	1	8	orientation	0.700000	1	0	0	present	1	465	79.996
ams2	Crossover_4	1.0-rc12	20101106.141710	experimental	321	1	1	2v5	0.100000	1	0	0	present	1	757	80.011
ams2	Crossover_4	1.0-rc12	20101106.141713	experimental	322	0	2	2v5	0.100000	1	0	0	absent	1	610	80.009
ams2	Crossover_4	1.0-rc12	20101106.141717	experimental	323	0	2	orientation	0.700000	1	0	0	present	0	700	80.006
ams2	Crossover_4	1.0-rc12	20101106.141721	experimental	324	1	8	orientation	0.700000	1	0	0	present	1	425	80.003
ams2	Crossover_4	1.0-rc12	20101106.141725	experimental	325	1	2	orientation	0.700000	1	0	0	present	1	483	80.014
ams2	Crossover_4	1.0-rc12	20101106.141728	experimental	326	0	4	2v5	0.100000	1	0	0	absent	1	576	80.011
ams2	Crossover_4	1.0-rc12	20101106.141732	experimental	327	1	2	orientation	0.700000	1	0	0	absent	0	754	79.997
ams2	Crossover_4	1.0-rc12	20101106.141736	experimental	328	0	8	orientation	0.700000	1	0	0	absent	1	725	80.003
ams2	Crossover_4	1.0-rc12	20101106.141740	experimental	329	1	8	orientation	0.700000	1	0	0	present	1	563	80.006
ams2	Crossover_4	1.0-rc12	20101106.141743	experimental	330	1	8	2v5	0.100000	1	0	0	present	1	520	80.002
ams2	Crossover_4	1.0-rc12	20101106.141747	experimental	331	1	1	orientation	0.700000	1	0	0	present	1	440	80.014
ams2	Crossover_4	1.0-rc12	20101106.141750	experimental	332	0	4	orientation	0.700000	1	0	0	absent	1	520	80.015
ams2	Crossover_4	1.0-rc12	20101106.141754	experimental	333	1	1	orientation	0.700000	1	0	0	present	1	425	80.014
ams2	Crossover_4	1.0-rc12	20101106.141758	experimental	334	1	4	orientation	0.700000	1	0	0	present	1	534	80.004
ams2	Crossover_4	1.0-rc12	20101106.141801	experimental	335	0	2	orientation	0.700000	1	0	0	absent	1	561	80.010
ams2	Crossover_4	1.0-rc12	20101106.141805	experimental	336	1	4	2v5	0.100000	1	0	0	present	1	507	80.006
ams2	Crossover_4	1.0-rc12	20101106.141809	experimental	337	0	8	2v5	0.100000	1	0	0	absent	1	590	80.011
ams2	Crossover_4	1.0-rc12	20101106.141812	experimental	338	1	1	2v5	0.100000	1	0	0	present	1	527	79.995
ams2	Crossover_4	1.0-rc12	20101106.141816	experimental	339	1	2	2v5	0.100000	1	0	0	present	1	524	80.004
ams2	Crossover_4	1.0-rc12	20101106.141820	experimental	340	1	4	orientation	0.700000	1	0	0	absent	0	566	80.008
ams2	Crossover_4	1.0-rc12	20101106.141823	experimental	341	1	2	2v5	0.100000	1	0	0	present	1	433	80.011
ams2	Crossover_4	1.0-rc12	20101106.141827	experimental	342	1	2	2v5	0.100000	1	0	0	present	1	523	80.011
ams2	Crossover_4	1.0-rc12	20101106.141830	experimental	343	1	4	orientation	0.700000	1	0	0	present	1	475	80.010
ams2	Crossover_4	1.0-rc12	20101106.141834	experimental	344	0	4	orientation	0.700000	1	0	0	present	0	634	80.005
ams2	Crossover_4	1.0-rc12	20101106.141838	experimental	345	1	8	orientation	0.700000	1	0	0	absent	0	710	80.014
ams2	Crossover_4	1.0-rc12	20101106.141842	experimental	346	1	4	2v5	0.100000	1	0	0	present	1	448	80.018
ams2	Crossover_4	1.0-rc12	20101106.141845	experimental	347	1	1	2v5	0.100000	1	0	0	present	1	433	80.015
ams2	Crossover_4	1.0-rc12	20101106.141849	experimental	348	1	2	orientation	0.700000	1	0	0	present	1	574	79.998
ams2	Crossover_4	1.0-rc12	20101106.141853	experimental	349	1	4	2v5	0.100000	1	0	0	present	1	524	80.012
ams2	Crossover_4	1.0-rc12	20101106.141856	experimental	350	0	8	orientation	0.700000	1	0	0	absent	1	523	80.010
ams2	Crossover_4	1.0-rc12	20101106.141937	experimental	351	0	1	2v5	0.100000	1	0	0	absent	1	634	80.005
ams2	Crossover_4	1.0-rc12	20101106.141941	experimental	352	1	8	2v5	0.100000	1	0	0	absent	0	605	80.000
ams2	Crossover_4	1.0-rc12	20101106.141944	experimental	353	1	2	orientation	0.700000	1	0	0	present	1	434	80.002
ams2	Crossover_4	1.0-rc12	20101106.141948	experimental	354	1	2	orientation	0.700000	1	0	0	absent	0	516	80.013
ams2	Crossover_4	1.0-rc12	20101106.141952	experimental	355	0	4	orientation	0.700000	1	0	0	absent	1	1447	80.006
ams2	Crossover_4	1.0-rc12	20101106.141956	experimental	356	0	4	2v5	0.100000	1	0	0	absent	1	1190	80.017
ams2	Crossover_4	1.0-rc12	20101106.142001	experimental	357	0	8	2v5	0.100000	1	0	0	present	0	590	80.000
ams2	Crossover_4	1.0-rc12	20101106.142004	experimental	358	0	2	2v5	0.100000	1	0	0	absent	1	549	80.004
ams2	Crossover_4	1.0-rc12	20101106.142008	experimental	359	0	1	orientation	0.700000	1	0	0	absent	1	445	80.004
ams2	Crossover_4	1.0-rc12	20101106.142012	experimental	360	1	8	2v5	0.100000	1	0	0	present	1	492	80.011
ams2	Crossover_4	1.0-rc12	20101106.142015	experimental	361	0	2	orientation	0.700000	1	0	0	absent	1	451	79.999
ams2	Crossover_4	1.0-rc12	20101106.142019	experimental	362	1	8	orientation	0.700000	1	0	0	present	1	499	79.995
ams2	Crossover_4	1.0-rc12	20101106.142022	experimental	363	1	8	2v5	0.100000	1	0	0	present	1	516	80.003
ams2	Crossover_4	1.0-rc12	20101106.142026	experimental	364	1	4	2v5	0.100000	1	0	0	absent	0	529	79.998
ams2	Crossover_4	1.0-rc12	20101106.142030	experimental	365	1	8	2v5	0.100000	1	0	0	absent	0	510	80.001
ams2	Crossover_4	1.0-rc12	20101106.142033	experimental	366	1	1	orientation	0.700000	1	0	0	present	1	476	80.008
ams2	Crossover_4	1.0-rc12	20101106.142037	experimental	367	0	2	orientation	0.700000	1	0	0	absent	1	492	79.996
ams2	Crossover_4	1.0-rc12	20101106.142041	experimental	368	0	1	2v5	0.100000	1	0	0	absent	1	510	80.016
ams2	Crossover_4	1.0-rc12	20101106.142044	experimental	369	0	4	orientation	0.700000	1	0	0	absent	1	484	80.003
ams2	Crossover_4	1.0-rc12	20101106.142048	experimental	370	1	1	2v5	0.100000	1	0	0	present	1	481	79.998
ams2	Crossover_4	1.0-rc12	20101106.142051	experimental	371	0	4	2v5	0.100000	1	0	0	absent	1	858	80.008
ams2	Crossover_4	1.0-rc12	20101106.142055	experimental	372	1	4	2v5	0.100000	1	0	0	absent	0	532	80.008
ams2	Crossover_4	1.0-rc12	20101106.142059	experimental	373	0	4	2v5	0.100000	1	0	0	absent	1	592	80.015
ams2	Crossover_4	1.0-rc12	20101106.142103	experimental	374	1	4	2v5	0.100000	1	0	0	absent	0	1186	79.996
ams2	Crossover_4	1.0-rc12	20101106.142107	experimental	375	1	8	orientation	0.700000	1	0	0	present	1	498	80.003
ams2	Crossover_4	1.0-rc12	20101106.142111	experimental	376	1	8	2v5	0.100000	1	0	0	absent	0	699	80.008
ams2	Crossover_4	1.0-rc12	20101106.142115	experimental	377	0	2	2v5	0.100000	1	0	0	absent	1	541	80.008
ams2	Crossover_4	1.0-rc12	20101106.142118	experimental	378	1	2	2v5	0.100000	1	0	0	present	1	512	80.010
ams2	Crossover_4	1.0-rc12	20101106.142122	experimental	379	1	1	orientation	0.700000	1	0	0	present	1	475	80.007
ams2	Crossover_4	1.0-rc12	20101106.142125	experimental	380	0	8	orientation	0.700000	1	0	0	absent	1	507	80.003
ams2	Crossover_4	1.0-rc12	20101106.142129	experimental	381	1	4	2v5	0.100000	1	0	0	present	1	441	80.007
ams2	Crossover_4	1.0-rc12	20101106.142133	experimental	382	0	8	orientation	0.700000	1	0	0	absent	1	583	80.017
ams2	Crossover_4	1.0-rc12	20101106.142136	experimental	383	0	4	orientation	0.700000	1	0	0	absent	1	558	80.010
ams2	Crossover_4	1.0-rc12	20101106.142140	experimental	384	0	8	orientation	0.700000	1	0	0	absent	1	594	79.999
ams2	Crossover_4	1.0-rc12	20101106.142144	experimental	385	1	2	2v5	0.100000	1	0	0	present	1	526	80.003
ams2	Crossover_4	1.0-rc12	20101106.142147	experimental	386	1	8	orientation	0.700000	1	0	0	present	1	476	80.017
ams2	Crossover_4	1.0-rc12	20101106.142151	experimental	387	0	1	orientation	0.700000	1	0	0	absent	1	490	80.013
ams2	Crossover_4	1.0-rc12	20101106.142155	experimental	388	1	1	2v5	0.100000	1	0	0	present	1	474	79.999
ams2	Crossover_4	1.0-rc12	20101106.142158	experimental	389	1	8	2v5	0.100000	1	0	0	absent	0	677	80.005
ams2	Crossover_4	1.0-rc12	20101106.142202	experimental	390	1	2	2v5	0.100000	1	0	0	present	1	432	80.010
ams2	Crossover_4	1.0-rc12	20101106.142206	experimental	391	1	2	2v5	0.100000	1	0	0	present	1	432	80.000
ams2	Crossover_4	1.0-rc12	20101106.142209	experimental	392	0	4	orientation	0.700000	1	0	0	absent	1	513	80.001
ams2	Crossover_4	1.0-rc12	20101106.142213	experimental	393	1	4	orientation	0.700000	1	0	0	absent	0	573	80.005
ams2	Crossover_4	1.0-rc12	20101106.142217	experimental	394	1	8	2v5	0.100000	1	0	0	present	1	473	80.016
ams2	Crossover_4	1.0-rc12	20101106.142220	experimental	395	1	1	2v5	0.100000	1	0	0	present	1	415	80.011
ams2	Crossover_4	1.0-rc12	20101106.142224	experimental	396	0	8	2v5	0.100000	1	0	0	present	0	465	80.007
ams2	Crossover_4	1.0-rc12	20101106.142227	experimental	397	0	4	orientation	0.700000	1	0	0	absent	1	552	80.010
ams2	Crossover_4	1.0-rc12	20101106.142231	experimental	398	0	2	orientation	0.700000	1	0	0	absent	1	465	80.009
ams2	Crossover_4	1.0-rc12	20101106.142235	experimental	399	0	1	orientation	0.700000	1	0	0	absent	1	482	80.008
ams2	Crossover_4	1.0-rc12	20101106.142238	experimental	400	0	1	orientation	0.700000	1	0	0	absent	1	457	79.996
ams2	Crossover_4	1.0-rc12	20101106.143256	experimental	1	0	4	2v5	0.100000	1	0	0	absent	1	560	80.004
ams2	Crossover_4	1.0-rc12	20101106.143300	experimental	2	1	2	orientation	0.700000	1	0	0	present	1	424	79.997
ams2	Crossover_4	1.0-rc12	20101106.143303	experimental	3	1	2	2v5	0.100000	1	0	0	present	1	536	80.011
ams2	Crossover_4	1.0-rc12	20101106.143307	experimental	4	1	4	orientation	0.700000	1	0	0	present	1	724	80.003
ams2	Crossover_4	1.0-rc12	20101106.143311	experimental	5	1	4	2v5	0.100000	1	0	0	present	1	559	80.012
ams2	Crossover_4	1.0-rc12	20101106.143314	experimental	6	1	1	orientation	0.700000	1	0	0	absent	0	1124	80.014
ams2	Crossover_4	1.0-rc12	20101106.143319	experimental	7	1	8	2v5	0.100000	1	0	0	present	1	449	80.012
ams2	Crossover_4	1.0-rc12	20101106.143322	experimental	8	1	2	2v5	0.100000	1	0	0	present	1	428	80.003
ams2	Crossover_4	1.0-rc12	20101106.143326	experimental	9	1	1	orientation	0.700000	1	0	0	present	1	393	80.007
ams2	Crossover_4	1.0-rc12	20101106.143329	experimental	10	1	2	2v5	0.100000	1	0	0	present	1	420	80.012
ams2	Crossover_4	1.0-rc12	20101106.143333	experimental	11	1	1	orientation	0.700000	1	0	0	present	1	425	80.010
ams2	Crossover_4	1.0-rc12	20101106.143336	experimental	12	0	4	orientation	0.700000	1	0	0	absent	1	596	79.996
ams2	Crossover_4	1.0-rc12	20101106.143340	experimental	13	1	4	2v5	0.100000	1	0	0	present	1	553	80.013
ams2	Crossover_4	1.0-rc12	20101106.143344	experimental	14	0	4	2v5	0.100000	1	0	0	present	0	645	80.019
ams2	Crossover_4	1.0-rc12	20101106.143348	experimental	15	0	2	2v5	0.100000	1	0	0	absent	1	574	79.996
ams2	Crossover_4	1.0-rc12	20101106.143351	experimental	16	0	8	orientation	0.700000	1	0	0	absent	1	552	80.015
ams2	Crossover_4	1.0-rc12	20101106.143355	experimental	17	1	8	orientation	0.700000	1	0	0	present	1	695	80.012
ams2	Crossover_4	1.0-rc12	20101106.143359	experimental	18	1	4	2v5	0.100000	1	0	0	present	1	451	80.014
ams2	Crossover_4	1.0-rc12	20101106.143402	experimental	19	1	2	2v5	0.100000	1	0	0	present	1	405	80.008
ams2	Crossover_4	1.0-rc12	20101106.143406	experimental	20	1	4	2v5	0.100000	1	0	0	present	1	509	80.002
ams2	Crossover_4	1.0-rc12	20101106.143410	experimental	21	0	8	orientation	0.700000	1	0	0	absent	1	550	80.000
ams2	Crossover_4	1.0-rc12	20101106.143413	experimental	22	0	1	orientation	0.700000	1	0	0	absent	1	563	80.009
ams2	Crossover_4	1.0-rc12	20101106.143417	experimental	23	0	8	2v5	0.100000	1	0	0	absent	1	542	80.014
ams2	Crossover_4	1.0-rc12	20101106.143421	experimental	24	0	2	orientation	0.700000	1	0	0	absent	1	1031	80.011
ams2	Crossover_4	1.0-rc12	20101106.143425	experimental	25	0	4	orientation	0.700000	1	0	0	absent	1	459	80.001
ams2	Crossover_4	1.0-rc12	20101106.143428	experimental	26	0	1	2v5	0.100000	1	0	0	absent	1	578	80.010
ams2	Crossover_4	1.0-rc12	20101106.143432	experimental	27	0	8	orientation	0.700000	1	0	0	present	0	524	80.002
ams2	Crossover_4	1.0-rc12	20101106.143436	experimental	28	1	8	orientation	0.700000	1	0	0	present	1	685	79.996
ams2	Crossover_4	1.0-rc12	20101106.143440	experimental	29	0	8	2v5	0.100000	1	0	0	absent	1	552	79.997
ams2	Crossover_4	1.0-rc12	20101106.143443	experimental	30	1	8	2v5	0.100000	1	0	0	absent	0	896	79.997
ams2	Crossover_4	1.0-rc12	20101106.143447	experimental	31	0	4	2v5	0.100000	1	0	0	absent	1	512	80.003
ams2	Crossover_4	1.0-rc12	20101106.143451	experimental	32	1	1	2v5	0.100000	1	0	0	present	1	637	80.002
ams2	Crossover_4	1.0-rc12	20101106.143455	experimental	33	0	4	orientation	0.700000	1	0	0	absent	1	1047	80.007
ams2	Crossover_4	1.0-rc12	20101106.143459	experimental	34	0	4	orientation	0.700000	1	0	0	present	0	491	80.017
ams2	Crossover_4	1.0-rc12	20101106.143502	experimental	35	0	8	orientation	0.700000	1	0	0	absent	1	637	80.005
ams2	Crossover_4	1.0-rc12	20101106.143506	experimental	36	1	8	2v5	0.100000	1	0	0	present	1	579	80.001
ams2	Crossover_4	1.0-rc12	20101106.143510	experimental	37	0	1	2v5	0.100000	1	0	0	absent	1	599	80.002
ams2	Crossover_4	1.0-rc12	20101106.143514	experimental	38	1	2	orientation	0.700000	1	0	0	present	1	426	80.008
ams2	Crossover_4	1.0-rc12	20101106.143517	experimental	39	0	2	2v5	0.100000	1	0	0	absent	1	503	79.996
ams2	Crossover_4	1.0-rc12	20101106.143521	experimental	40	0	8	orientation	0.700000	1	0	0	absent	1	529	80.011
ams2	Crossover_4	1.0-rc12	20101106.143525	experimental	41	0	8	2v5	0.100000	1	0	0	absent	1	519	80.009
ams2	Crossover_4	1.0-rc12	20101106.143528	experimental	42	0	1	2v5	0.100000	1	0	0	absent	1	495	80.006
ams2	Crossover_4	1.0-rc12	20101106.143532	experimental	43	0	1	2v5	0.100000	1	0	0	present	0	558	80.020
ams2	Crossover_4	1.0-rc12	20101106.143535	experimental	44	0	4	2v5	0.100000	1	0	0	absent	1	478	80.000
ams2	Crossover_4	1.0-rc12	20101106.143539	experimental	45	1	4	orientation	0.700000	1	0	0	present	1	501	80.013
ams2	Crossover_4	1.0-rc12	20101106.143543	experimental	46	1	4	orientation	0.700000	1	0	0	present	1	467	80.006
ams2	Crossover_4	1.0-rc12	20101106.143546	experimental	47	1	8	2v5	0.100000	1	0	0	absent	0	521	80.017
ams2	Crossover_4	1.0-rc12	20101106.143550	experimental	48	0	2	2v5	0.100000	1	0	0	absent	1	462	80.013
ams2	Crossover_4	1.0-rc12	20101106.143554	experimental	49	1	2	orientation	0.700000	1	0	0	present	1	558	80.005
ams2	Crossover_4	1.0-rc12	20101106.143557	experimental	50	1	4	2v5	0.100000	1	0	0	present	1	568	80.005
ams2	Crossover_4	1.0-rc12	20101106.144158	experimental	51	1	4	2v5	0.100000	1	0	0	present	1	526	80.016
ams2	Crossover_4	1.0-rc12	20101106.144202	experimental	52	1	4	orientation	0.700000	1	0	0	present	1	538	80.004
ams2	Crossover_4	1.0-rc12	20101106.144206	experimental	53	1	4	2v5	0.100000	1	0	0	present	1	451	80.008
ams2	Crossover_4	1.0-rc12	20101106.144210	experimental	54	0	1	2v5	0.100000	1	0	0	absent	1	424	80.014
ams2	Crossover_4	1.0-rc12	20101106.144213	experimental	55	1	4	orientation	0.700000	1	0	0	present	1	466	80.006
ams2	Crossover_4	1.0-rc12	20101106.144217	experimental	56	1	2	orientation	0.700000	1	0	0	absent	0	542	80.013
ams2	Crossover_4	1.0-rc12	20101106.144220	experimental	57	0	8	orientation	0.700000	1	0	0	present	0	722	80.015
ams2	Crossover_4	1.0-rc12	20101106.144224	experimental	58	0	8	2v5	0.100000	1	0	0	absent	1	603	80.014
ams2	Crossover_4	1.0-rc12	20101106.144228	experimental	59	0	8	orientation	0.700000	1	0	0	absent	1	522	80.003
ams2	Crossover_4	1.0-rc12	20101106.144232	experimental	60	0	8	2v5	0.100000	1	0	0	absent	1	519	79.998
ams2	Crossover_4	1.0-rc12	20101106.144235	experimental	61	0	8	orientation	0.700000	1	0	0	absent	1	487	80.001
ams2	Crossover_4	1.0-rc12	20101106.144239	experimental	62	1	8	orientation	0.700000	1	0	0	present	1	484	80.003
ams2	Crossover_4	1.0-rc12	20101106.144243	experimental	63	0	2	2v5	0.100000	1	0	0	present	0	602	79.997
ams2	Crossover_4	1.0-rc12	20101106.144246	experimental	64	1	2	2v5	0.100000	1	0	0	present	1	417	80.007
ams2	Crossover_4	1.0-rc12	20101106.144250	experimental	65	0	2	2v5	0.100000	1	0	0	absent	1	492	80.000
ams2	Crossover_4	1.0-rc12	20101106.144253	experimental	66	1	8	2v5	0.100000	1	0	0	present	1	412	80.010
ams2	Crossover_4	1.0-rc12	20101106.144257	experimental	67	1	2	orientation	0.700000	1	0	0	present	1	400	80.010
ams2	Crossover_4	1.0-rc12	20101106.144301	experimental	68	0	8	2v5	0.100000	1	0	0	present	0	487	80.001
ams2	Crossover_4	1.0-rc12	20101106.144304	experimental	69	0	8	orientation	0.700000	1	0	0	present	0	441	80.008
ams2	Crossover_4	1.0-rc12	20101106.144308	experimental	70	0	8	orientation	0.700000	1	0	0	absent	1	541	80.001
ams2	Crossover_4	1.0-rc12	20101106.144311	experimental	71	1	4	orientation	0.700000	1	0	0	absent	0	502	79.998
ams2	Crossover_4	1.0-rc12	20101106.144315	experimental	72	0	2	2v5	0.100000	1	0	0	absent	1	582	80.002
ams2	Crossover_4	1.0-rc12	20101106.144319	experimental	73	0	4	orientation	0.700000	1	0	0	absent	1	550	79.999
ams2	Crossover_4	1.0-rc12	20101106.144322	experimental	74	1	4	orientation	0.700000	1	0	0	absent	0	527	80.006
ams2	Crossover_4	1.0-rc12	20101106.144326	experimental	75	0	4	2v5	0.100000	1	0	0	absent	1	508	80.004
ams2	Crossover_4	1.0-rc12	20101106.144330	experimental	76	0	1	orientation	0.700000	1	0	0	absent	1	458	80.004
ams2	Crossover_4	1.0-rc12	20101106.144333	experimental	77	1	8	orientation	0.700000	1	0	0	present	1	476	80.004
ams2	Crossover_4	1.0-rc12	20101106.144337	experimental	78	1	2	orientation	0.700000	1	0	0	present	1	475	80.004
ams2	Crossover_4	1.0-rc12	20101106.144341	experimental	79	1	4	2v5	0.100000	1	0	0	present	1	512	80.004
ams2	Crossover_4	1.0-rc12	20101106.144344	experimental	80	1	8	2v5	0.100000	1	0	0	present	1	458	80.017
ams2	Crossover_4	1.0-rc12	20101106.144348	experimental	81	1	4	2v5	0.100000	1	0	0	present	1	536	80.008
ams2	Crossover_4	1.0-rc12	20101106.144351	experimental	82	0	1	2v5	0.100000	1	0	0	absent	1	545	80.006
ams2	Crossover_4	1.0-rc12	20101106.144355	experimental	83	1	2	orientation	0.700000	1	0	0	present	1	459	80.003
ams2	Crossover_4	1.0-rc12	20101106.144359	experimental	84	0	1	orientation	0.700000	1	0	0	absent	1	511	80.013
ams2	Crossover_4	1.0-rc12	20101106.144402	experimental	85	0	1	orientation	0.700000	1	0	0	present	0	460	80.006
ams2	Crossover_4	1.0-rc12	20101106.144406	experimental	86	1	8	orientation	0.700000	1	0	0	absent	0	586	80.011
ams2	Crossover_4	1.0-rc12	20101106.144410	experimental	87	0	1	orientation	0.700000	1	0	0	absent	1	450	80.014
ams2	Crossover_4	1.0-rc12	20101106.144413	experimental	88	0	1	2v5	0.100000	1	0	0	absent	1	500	80.010
ams2	Crossover_4	1.0-rc12	20101106.144417	experimental	89	1	2	orientation	0.700000	1	0	0	present	1	472	80.012
ams2	Crossover_4	1.0-rc12	20101106.144420	experimental	90	1	8	orientation	0.700000	1	0	0	present	1	589	80.007
ams2	Crossover_4	1.0-rc12	20101106.144424	experimental	91	1	1	2v5	0.100000	1	0	0	present	1	536	80.010
ams2	Crossover_4	1.0-rc12	20101106.144428	experimental	92	1	1	2v5	0.100000	1	0	0	present	1	534	80.008
ams2	Crossover_4	1.0-rc12	20101106.144431	experimental	93	1	2	orientation	0.700000	1	0	0	present	1	812	80.016
ams2	Crossover_4	1.0-rc12	20101106.144435	experimental	94	0	4	2v5	0.100000	1	0	0	absent	1	503	80.007
ams2	Crossover_4	1.0-rc12	20101106.144439	experimental	95	0	8	orientation	0.700000	1	0	0	absent	1	584	80.017
ams2	Crossover_4	1.0-rc12	20101106.144443	experimental	96	1	1	orientation	0.700000	1	0	0	present	1	441	80.003
ams2	Crossover_4	1.0-rc12	20101106.144446	experimental	97	0	2	orientation	0.700000	1	0	0	absent	1	444	80.000
ams2	Crossover_4	1.0-rc12	20101106.144450	experimental	98	0	1	orientation	0.700000	1	0	0	absent	1	435	80.003
ams2	Crossover_4	1.0-rc12	20101106.144453	experimental	99	0	4	orientation	0.700000	1	0	0	present	0	594	80.009
ams2	Crossover_4	1.0-rc12	20101106.144457	experimental	100	1	1	orientation	0.700000	1	0	0	present	1	426	80.000
ams2	Crossover_4	1.0-rc12	20101106.144927	experimental	101	0	2	orientation	0.700000	1	0	0	absent	1	516	80.012
ams2	Crossover_4	1.0-rc12	20101106.144930	experimental	102	1	1	2v5	0.100000	1	0	0	present	1	469	80.000
ams2	Crossover_4	1.0-rc12	20101106.144934	experimental	103	1	2	orientation	0.700000	1	0	0	absent	0	566	80.006
ams2	Crossover_4	1.0-rc12	20101106.144938	experimental	104	0	2	2v5	0.100000	1	0	0	absent	1	643	80.013
ams2	Crossover_4	1.0-rc12	20101106.144941	experimental	105	0	1	orientation	0.700000	1	0	0	absent	1	619	80.000
ams2	Crossover_4	1.0-rc12	20101106.144945	experimental	106	1	1	2v5	0.100000	1	0	0	present	1	417	80.010
ams2	Crossover_4	1.0-rc12	20101106.144949	experimental	107	1	1	2v5	0.100000	1	0	0	present	1	365	80.009
ams2	Crossover_4	1.0-rc12	20101106.144952	experimental	108	1	2	2v5	0.100000	1	0	0	present	1	504	80.004
ams2	Crossover_4	1.0-rc12	20101106.144956	experimental	109	1	1	2v5	0.100000	1	0	0	present	1	400	80.005
ams2	Crossover_4	1.0-rc12	20101106.144959	experimental	110	0	1	2v5	0.100000	1	0	0	present	0	406	80.011
ams2	Crossover_4	1.0-rc12	20101106.145003	experimental	111	1	1	2v5	0.100000	1	0	0	present	1	513	80.001
ams2	Crossover_4	1.0-rc12	20101106.145007	experimental	112	0	4	2v5	0.100000	1	0	0	absent	1	663	80.007
ams2	Crossover_4	1.0-rc12	20101106.145010	experimental	113	0	2	orientation	0.700000	1	0	0	absent	1	545	79.999
ams2	Crossover_4	1.0-rc12	20101106.145014	experimental	114	0	8	2v5	0.100000	1	0	0	absent	1	458	80.013
ams2	Crossover_4	1.0-rc12	20101106.145018	experimental	115	1	4	orientation	0.700000	1	0	0	present	1	436	80.003
ams2	Crossover_4	1.0-rc12	20101106.145021	experimental	116	0	1	2v5	0.100000	1	0	0	absent	1	524	80.005
ams2	Crossover_4	1.0-rc12	20101106.145025	experimental	117	1	8	2v5	0.100000	1	0	0	present	1	492	80.010
ams2	Crossover_4	1.0-rc12	20101106.145029	experimental	118	0	1	orientation	0.700000	1	0	0	absent	1	482	80.015
ams2	Crossover_4	1.0-rc12	20101106.145032	experimental	119	0	2	2v5	0.100000	1	0	0	absent	1	535	80.002
ams2	Crossover_4	1.0-rc12	20101106.145036	experimental	120	1	8	2v5	0.100000	1	0	0	absent	0	458	79.999
ams2	Crossover_4	1.0-rc12	20101106.145039	experimental	121	1	8	orientation	0.700000	1	0	0	present	1	544	80.007
ams2	Crossover_4	1.0-rc12	20101106.145043	experimental	122	1	4	2v5	0.100000	1	0	0	absent	0	615	80.014
ams2	Crossover_4	1.0-rc12	20101106.145047	experimental	123	1	4	orientation	0.700000	1	0	0	present	1	425	80.005
ams2	Crossover_4	1.0-rc12	20101106.145050	experimental	124	0	4	orientation	0.700000	1	0	0	absent	1	515	80.004
ams2	Crossover_4	1.0-rc12	20101106.145054	experimental	125	0	1	orientation	0.700000	1	0	0	absent	1	476	80.003
ams2	Crossover_4	1.0-rc12	20101106.145058	experimental	126	0	1	2v5	0.100000	1	0	0	absent	1	532	80.015
ams2	Crossover_4	1.0-rc12	20101106.145101	experimental	127	1	1	orientation	0.700000	1	0	0	present	1	595	80.018
ams2	Crossover_4	1.0-rc12	20101106.145105	experimental	128	1	1	2v5	0.100000	1	0	0	present	1	644	80.010
ams2	Crossover_4	1.0-rc12	20101106.145109	experimental	129	1	4	2v5	0.100000	1	0	0	absent	0	582	80.008
ams2	Crossover_4	1.0-rc12	20101106.145113	experimental	130	0	2	orientation	0.700000	1	0	0	absent	1	526	80.002
ams2	Crossover_4	1.0-rc12	20101106.145116	experimental	131	0	2	2v5	0.100000	1	0	0	present	0	938	80.002
