Subject	Code	Version	Timestamp	Block	Trial	Target	SetSize	StimSet	Noise	Precue	StairTrack	Reversal	Response	Accuracy	RT	ActualExpDur
CMB4	Crossover_4	1.0-rc12	20101005.132936	practice	1	1	1	orientation	0.700000	1	0	0	absent	0	842	80.030
CMB4	Crossover_4	1.0-rc12	20101005.132940	practice	2	0	8	orientation	0.700000	1	0	0	absent	1	605	80.039
CMB4	Crossover_4	1.0-rc12	20101005.132944	practice	3	0	1	2v5	0.150000	1	0	0	absent	1	662	80.034
CMB4	Crossover_4	1.0-rc12	20101005.132947	practice	4	1	4	orientation	0.700000	1	0	0	present	1	578	80.029
CMB4	Crossover_4	1.0-rc12	20101005.132951	practice	5	1	1	2v5	0.150000	1	0	0	present	1	489	80.036
CMB4	Crossover_4	1.0-rc12	20101005.132954	practice	6	0	4	orientation	0.700000	1	0	0	absent	1	523	80.038
CMB4	Crossover_4	1.0-rc12	20101005.132958	practice	7	1	8	2v5	0.150000	1	0	0	absent	0	565	80.028
CMB4	Crossover_4	1.0-rc12	20101005.133001	practice	8	0	1	orientation	0.700000	1	0	0	absent	1	613	80.033
CMB4	Crossover_4	1.0-rc12	20101005.133005	practice	9	1	1	orientation	0.700000	1	0	0	present	1	537	80.031
CMB4	Crossover_4	1.0-rc12	20101005.133008	practice	10	0	2	orientation	0.700000	1	0	0	absent	1	509	80.032
CMB4	Crossover_4	1.0-rc12	20101005.133012	practice	11	0	8	2v5	0.150000	1	0	0	absent	1	932	80.033
CMB4	Crossover_4	1.0-rc12	20101005.133016	practice	12	1	1	orientation	0.700000	1	0	0	present	1	565	80.033
CMB4	Crossover_4	1.0-rc12	20101005.133019	practice	13	1	4	2v5	0.150000	1	0	0	present	1	530	80.022
CMB4	Crossover_4	1.0-rc12	20101005.133023	practice	14	0	2	orientation	0.700000	1	0	0	absent	1	828	80.032
CMB4	Crossover_4	1.0-rc12	20101005.133027	practice	15	0	8	orientation	0.700000	1	0	0	absent	1	537	80.028
CMB4	Crossover_4	1.0-rc12	20101005.133030	practice	16	1	8	orientation	0.700000	1	0	0	present	1	586	80.035
CMB4	Crossover_4	1.0-rc12	20101005.133034	practice	17	1	8	orientation	0.700000	1	0	0	absent	0	571	80.037
CMB4	Crossover_4	1.0-rc12	20101005.133037	practice	18	1	8	2v5	0.150000	1	0	0	present	1	579	80.036
CMB4	Crossover_4	1.0-rc12	20101005.133041	practice	19	0	4	2v5	0.150000	1	0	0	absent	1	530	80.032
CMB4	Crossover_4	1.0-rc12	20101005.133044	practice	20	0	1	2v5	0.150000	1	0	0	absent	1	585	80.032
CMB4	Crossover_4	1.0-rc12	20101005.133048	practice	21	1	1	2v5	0.150000	1	0	0	present	1	481	80.028
CMB4	Crossover_4	1.0-rc12	20101005.133051	practice	22	1	8	2v5	0.150000	1	0	0	absent	0	613	80.033
CMB4	Crossover_4	1.0-rc12	20101005.133055	practice	23	0	1	orientation	0.700000	1	0	0	absent	1	523	80.030
CMB4	Crossover_4	1.0-rc12	20101005.133059	practice	24	0	2	2v5	0.150000	1	0	0	absent	1	724	80.030
CMB4	Crossover_4	1.0-rc12	20101005.133102	practice	25	0	1	2v5	0.150000	1	0	0	absent	1	537	80.028
CMB4	Crossover_4	1.0-rc12	20101005.133106	practice	26	1	8	orientation	0.700000	1	0	0	absent	0	634	80.028
CMB4	Crossover_4	1.0-rc12	20101005.133109	practice	27	0	8	orientation	0.700000	1	0	0	present	0	847	80.032
CMB4	Crossover_4	1.0-rc12	20101005.133113	practice	28	1	2	orientation	0.700000	1	0	0	present	1	454	80.020
CMB4	Crossover_4	1.0-rc12	20101005.133117	practice	29	0	4	orientation	0.700000	1	0	0	absent	1	780	80.038
CMB4	Crossover_4	1.0-rc12	20101005.133120	practice	30	1	2	2v5	0.150000	1	0	0	present	1	662	80.030
CMB4	Crossover_4	1.0-rc12	20101005.133124	practice	31	1	2	orientation	0.700000	1	0	0	absent	0	578	80.027
CMB4	Crossover_4	1.0-rc12	20101005.133128	practice	32	1	1	2v5	0.150000	1	0	0	present	1	655	80.033
CMB4	Crossover_4	1.0-rc12	20101005.133131	practice	33	1	4	orientation	0.700000	1	0	0	present	1	606	80.021
CMB4	Crossover_4	1.0-rc12	20101005.133135	practice	34	0	2	2v5	0.150000	1	0	0	absent	1	564	80.027
CMB4	Crossover_4	1.0-rc12	20101005.133138	practice	35	0	8	2v5	0.150000	1	0	0	absent	1	1036	80.020
CMB4	Crossover_4	1.0-rc12	20101005.133142	practice	36	1	4	orientation	0.700000	1	0	0	present	1	557	80.029
CMB4	Crossover_4	1.0-rc12	20101005.133146	practice	37	1	4	2v5	0.150000	1	0	0	absent	0	682	80.034
CMB4	Crossover_4	1.0-rc12	20101005.133150	practice	38	1	4	2v5	0.150000	1	0	0	present	1	2759	80.031
CMB4	Crossover_4	1.0-rc12	20101005.133155	practice	39	1	2	orientation	0.700000	1	0	0	absent	0	620	80.032
CMB4	Crossover_4	1.0-rc12	20101005.133159	practice	40	1	1	orientation	0.700000	1	0	0	present	1	648	80.036
CMB4	Crossover_4	1.0-rc12	20101005.133203	practice	41	0	8	2v5	0.150000	1	0	0	absent	1	1451	80.031
CMB4	Crossover_4	1.0-rc12	20101005.133207	practice	42	1	2	2v5	0.150000	1	0	0	present	1	516	80.027
CMB4	Crossover_4	1.0-rc12	20101005.133211	practice	43	1	8	orientation	0.700000	1	0	0	present	1	613	80.031
CMB4	Crossover_4	1.0-rc12	20101005.133214	practice	44	0	8	orientation	0.700000	1	0	0	absent	1	703	80.037
CMB4	Crossover_4	1.0-rc12	20101005.133218	practice	45	0	4	orientation	0.700000	1	0	0	absent	1	599	80.021
CMB4	Crossover_4	1.0-rc12	20101005.133221	practice	46	0	4	orientation	0.700000	1	0	0	absent	1	564	80.036
CMB4	Crossover_4	1.0-rc12	20101005.133225	practice	47	0	2	2v5	0.150000	1	0	0	absent	1	1049	80.035
CMB4	Crossover_4	1.0-rc12	20101005.133229	practice	48	0	4	2v5	0.150000	1	0	0	absent	1	800	80.032
CMB4	Crossover_4	1.0-rc12	20101005.133233	practice	49	1	2	2v5	0.150000	1	0	0	present	1	599	80.023
CMB4	Crossover_4	1.0-rc12	20101005.133236	practice	50	1	4	2v5	0.150000	1	0	0	present	1	530	80.030
CMB4	Crossover_4	1.0-rc12	20101005.133240	experimental	1	1	1	orientation	0.700000	1	0	0	present	1	592	80.017
CMB4	Crossover_4	1.0-rc12	20101005.133243	experimental	2	1	1	orientation	0.700000	1	0	0	present	1	516	80.025
CMB4	Crossover_4	1.0-rc12	20101005.133247	experimental	3	0	8	2v5	0.150000	1	0	0	absent	1	814	80.036
CMB4	Crossover_4	1.0-rc12	20101005.133251	experimental	4	0	1	orientation	0.700000	1	0	0	absent	1	620	80.035
CMB4	Crossover_4	1.0-rc12	20101005.133254	experimental	5	1	8	orientation	0.700000	1	0	0	present	1	537	80.027
CMB4	Crossover_4	1.0-rc12	20101005.133258	experimental	6	1	2	2v5	0.150000	1	0	0	present	1	648	80.030
CMB4	Crossover_4	1.0-rc12	20101005.133301	experimental	7	1	8	2v5	0.150000	1	0	0	present	1	488	80.029
CMB4	Crossover_4	1.0-rc12	20101005.133305	experimental	8	1	8	orientation	0.700000	1	0	0	absent	0	668	80.032
CMB4	Crossover_4	1.0-rc12	20101005.133309	experimental	9	1	1	2v5	0.150000	1	0	0	present	1	420	80.039
CMB4	Crossover_4	1.0-rc12	20101005.133312	experimental	10	1	2	orientation	0.700000	1	0	0	absent	0	994	80.032
CMB4	Crossover_4	1.0-rc12	20101005.133316	experimental	11	1	1	2v5	0.150000	1	0	0	present	1	606	80.023
CMB4	Crossover_4	1.0-rc12	20101005.133320	experimental	12	0	4	orientation	0.700000	1	0	0	absent	1	585	80.026
CMB4	Crossover_4	1.0-rc12	20101005.133323	experimental	13	0	4	orientation	0.700000	1	0	0	absent	1	876	80.035
CMB4	Crossover_4	1.0-rc12	20101005.133327	experimental	14	0	8	orientation	0.700000	1	0	0	absent	1	516	80.033
CMB4	Crossover_4	1.0-rc12	20101005.133330	experimental	15	1	2	orientation	0.700000	1	0	0	present	1	620	80.031
CMB4	Crossover_4	1.0-rc12	20101005.133334	experimental	16	1	1	orientation	0.700000	1	0	0	present	1	488	80.038
CMB4	Crossover_4	1.0-rc12	20101005.133338	experimental	17	1	2	orientation	0.700000	1	0	0	present	1	454	80.029
CMB4	Crossover_4	1.0-rc12	20101005.133341	experimental	18	0	2	orientation	0.700000	1	0	0	absent	1	600	80.025
CMB4	Crossover_4	1.0-rc12	20101005.133345	experimental	19	0	8	orientation	0.700000	1	0	0	absent	1	800	80.036
CMB4	Crossover_4	1.0-rc12	20101005.133348	experimental	20	1	1	2v5	0.150000	1	0	0	present	1	496	80.032
CMB4	Crossover_4	1.0-rc12	20101005.133352	experimental	21	0	2	2v5	0.150000	1	0	0	absent	1	911	80.026
CMB4	Crossover_4	1.0-rc12	20101005.133356	experimental	22	1	4	2v5	0.150000	1	0	0	present	1	536	80.030
CMB4	Crossover_4	1.0-rc12	20101005.133359	experimental	23	0	1	2v5	0.150000	1	0	0	absent	1	662	80.039
CMB4	Crossover_4	1.0-rc12	20101005.133403	experimental	24	0	8	orientation	0.700000	1	0	0	absent	1	537	80.028
CMB4	Crossover_4	1.0-rc12	20101005.133406	experimental	25	1	4	orientation	0.700000	1	0	0	present	1	1077	80.034
CMB4	Crossover_4	1.0-rc12	20101005.133410	experimental	26	0	1	orientation	0.700000	1	0	0	absent	1	558	80.027
CMB4	Crossover_4	1.0-rc12	20101005.133414	experimental	27	1	8	orientation	0.700000	1	0	0	present	1	807	80.020
CMB4	Crossover_4	1.0-rc12	20101005.133418	experimental	28	0	2	orientation	0.700000	1	0	0	absent	1	544	80.022
CMB4	Crossover_4	1.0-rc12	20101005.133421	experimental	29	0	2	orientation	0.700000	1	0	0	absent	1	502	80.026
CMB4	Crossover_4	1.0-rc12	20101005.133425	experimental	30	0	4	orientation	0.700000	1	0	0	absent	1	654	80.031
CMB4	Crossover_4	1.0-rc12	20101005.133428	experimental	31	0	4	2v5	0.150000	1	0	0	absent	1	751	80.041
CMB4	Crossover_4	1.0-rc12	20101005.133432	experimental	32	1	4	2v5	0.150000	1	0	0	present	1	717	80.033
CMB4	Crossover_4	1.0-rc12	20101005.133436	experimental	33	1	2	2v5	0.150000	1	0	0	present	1	626	80.034
CMB4	Crossover_4	1.0-rc12	20101005.133439	experimental	34	0	2	2v5	0.150000	1	0	0	absent	1	613	80.031
CMB4	Crossover_4	1.0-rc12	20101005.133443	experimental	35	1	4	orientation	0.700000	1	0	0	present	1	724	80.036
CMB4	Crossover_4	1.0-rc12	20101005.133447	experimental	36	1	1	2v5	0.150000	1	0	0	present	1	537	80.027
CMB4	Crossover_4	1.0-rc12	20101005.133450	experimental	37	1	2	2v5	0.150000	1	0	0	present	1	585	80.035
CMB4	Crossover_4	1.0-rc12	20101005.133454	experimental	38	1	1	orientation	0.700000	1	0	0	present	1	586	80.030
CMB4	Crossover_4	1.0-rc12	20101005.133457	experimental	39	0	2	2v5	0.150000	1	0	0	absent	1	599	80.032
CMB4	Crossover_4	1.0-rc12	20101005.133501	experimental	40	1	2	2v5	0.150000	1	0	0	present	1	745	80.031
CMB4	Crossover_4	1.0-rc12	20101005.133505	experimental	41	0	4	orientation	0.700000	1	0	0	absent	1	593	80.023
CMB4	Crossover_4	1.0-rc12	20101005.133508	experimental	42	1	8	2v5	0.150000	1	0	0	absent	0	682	80.036
CMB4	Crossover_4	1.0-rc12	20101005.133512	experimental	43	1	1	2v5	0.150000	1	0	0	present	1	495	80.025
CMB4	Crossover_4	1.0-rc12	20101005.133515	experimental	44	0	4	orientation	0.700000	1	0	0	absent	1	509	80.029
CMB4	Crossover_4	1.0-rc12	20101005.133519	experimental	45	1	1	2v5	0.150000	1	0	0	present	1	412	80.024
CMB4	Crossover_4	1.0-rc12	20101005.133522	experimental	46	1	8	2v5	0.150000	1	0	0	absent	0	793	80.024
CMB4	Crossover_4	1.0-rc12	20101005.133526	experimental	47	0	1	2v5	0.150000	1	0	0	absent	1	551	80.022
CMB4	Crossover_4	1.0-rc12	20101005.133529	experimental	48	0	8	2v5	0.150000	1	0	0	absent	1	585	80.025
CMB4	Crossover_4	1.0-rc12	20101005.133533	experimental	49	1	2	orientation	0.700000	1	0	0	present	1	489	80.033
CMB4	Crossover_4	1.0-rc12	20101005.133536	experimental	50	1	2	orientation	0.700000	1	0	0	present	1	558	80.025
CMB4	Crossover_4	1.0-rc12	20101005.133702	experimental	51	1	1	orientation	0.700000	1	0	0	present	1	510	80.037
CMB4	Crossover_4	1.0-rc12	20101005.133706	experimental	52	0	2	orientation	0.700000	1	0	0	absent	1	710	80.029
CMB4	Crossover_4	1.0-rc12	20101005.133709	experimental	53	1	1	2v5	0.150000	1	0	0	present	1	551	80.026
CMB4	Crossover_4	1.0-rc12	20101005.133713	experimental	54	1	1	2v5	0.150000	1	0	0	present	1	406	80.029
CMB4	Crossover_4	1.0-rc12	20101005.133716	experimental	55	0	4	2v5	0.150000	1	0	0	absent	1	571	80.026
CMB4	Crossover_4	1.0-rc12	20101005.133720	experimental	56	0	1	2v5	0.150000	1	0	0	absent	1	517	80.026
CMB4	Crossover_4	1.0-rc12	20101005.133723	experimental	57	1	1	2v5	0.150000	1	0	0	present	1	634	80.021
CMB4	Crossover_4	1.0-rc12	20101005.133727	experimental	58	1	8	orientation	0.700000	1	0	0	present	1	558	80.031
CMB4	Crossover_4	1.0-rc12	20101005.133730	experimental	59	0	4	2v5	0.150000	1	0	0	absent	1	1076	80.031
CMB4	Crossover_4	1.0-rc12	20101005.133734	experimental	60	1	1	orientation	0.700000	1	0	0	present	1	502	80.037
CMB4	Crossover_4	1.0-rc12	20101005.133738	experimental	61	1	1	2v5	0.150000	1	0	0	present	1	461	80.019
CMB4	Crossover_4	1.0-rc12	20101005.133741	experimental	62	0	2	2v5	0.150000	1	0	0	present	0	551	80.036
CMB4	Crossover_4	1.0-rc12	20101005.133745	experimental	63	0	2	orientation	0.700000	1	0	0	absent	1	635	80.023
CMB4	Crossover_4	1.0-rc12	20101005.133748	experimental	64	0	4	2v5	0.150000	1	0	0	absent	1	634	80.021
CMB4	Crossover_4	1.0-rc12	20101005.133752	experimental	65	1	2	2v5	0.150000	1	0	0	present	1	468	80.026
CMB4	Crossover_4	1.0-rc12	20101005.133755	experimental	66	1	4	2v5	0.150000	1	0	0	present	1	496	80.027
CMB4	Crossover_4	1.0-rc12	20101005.133759	experimental	67	0	2	orientation	0.700000	1	0	0	absent	1	530	80.030
CMB4	Crossover_4	1.0-rc12	20101005.133802	experimental	68	1	1	2v5	0.150000	1	0	0	present	1	516	80.031
CMB4	Crossover_4	1.0-rc12	20101005.133806	experimental	69	0	4	orientation	0.700000	1	0	0	absent	1	578	80.031
CMB4	Crossover_4	1.0-rc12	20101005.133809	experimental	70	0	4	2v5	0.150000	1	0	0	absent	1	1139	80.033
CMB4	Crossover_4	1.0-rc12	20101005.133814	experimental	71	1	4	orientation	0.700000	1	0	0	absent	0	502	80.029
CMB4	Crossover_4	1.0-rc12	20101005.133817	experimental	72	0	1	orientation	0.700000	1	0	0	absent	1	530	80.032
CMB4	Crossover_4	1.0-rc12	20101005.133821	experimental	73	1	8	orientation	0.700000	1	0	0	present	1	495	80.033
CMB4	Crossover_4	1.0-rc12	20101005.133824	experimental	74	0	2	2v5	0.150000	1	0	0	present	0	710	80.023
CMB4	Crossover_4	1.0-rc12	20101005.133828	experimental	75	1	1	orientation	0.700000	1	0	0	present	1	530	80.027
CMB4	Crossover_4	1.0-rc12	20101005.133831	experimental	76	0	2	2v5	0.150000	1	0	0	absent	1	793	80.024
CMB4	Crossover_4	1.0-rc12	20101005.133835	experimental	77	1	1	orientation	0.700000	1	0	0	present	1	481	80.030
CMB4	Crossover_4	1.0-rc12	20101005.133838	experimental	78	0	1	orientation	0.700000	1	0	0	absent	1	592	80.036
CMB4	Crossover_4	1.0-rc12	20101005.133842	experimental	79	0	1	orientation	0.700000	1	0	0	absent	1	599	80.019
CMB4	Crossover_4	1.0-rc12	20101005.133846	experimental	80	1	4	2v5	0.150000	1	0	0	absent	0	952	80.039
CMB4	Crossover_4	1.0-rc12	20101005.133849	experimental	81	1	1	orientation	0.700000	1	0	0	present	1	648	80.022
CMB4	Crossover_4	1.0-rc12	20101005.133853	experimental	82	1	8	2v5	0.150000	1	0	0	present	1	980	80.034
CMB4	Crossover_4	1.0-rc12	20101005.133857	experimental	83	1	2	2v5	0.150000	1	0	0	present	1	496	80.030
CMB4	Crossover_4	1.0-rc12	20101005.133900	experimental	84	0	4	2v5	0.150000	1	0	0	absent	1	925	80.028
CMB4	Crossover_4	1.0-rc12	20101005.133904	experimental	85	0	2	2v5	0.150000	1	0	0	present	0	495	80.030
CMB4	Crossover_4	1.0-rc12	20101005.133908	experimental	86	0	8	orientation	0.700000	1	0	0	absent	1	599	80.031
CMB4	Crossover_4	1.0-rc12	20101005.133911	experimental	87	0	2	2v5	0.150000	1	0	0	absent	1	634	80.026
CMB4	Crossover_4	1.0-rc12	20101005.133915	experimental	88	0	8	2v5	0.150000	1	0	0	absent	1	586	80.032
CMB4	Crossover_4	1.0-rc12	20101005.133919	experimental	89	1	4	orientation	0.700000	1	0	0	present	1	558	80.030
CMB4	Crossover_4	1.0-rc12	20101005.133922	experimental	90	1	2	orientation	0.700000	1	0	0	present	1	468	80.033
CMB4	Crossover_4	1.0-rc12	20101005.133926	experimental	91	1	1	orientation	0.700000	1	0	0	present	1	496	80.026
CMB4	Crossover_4	1.0-rc12	20101005.133929	experimental	92	0	4	orientation	0.700000	1	0	0	absent	1	641	80.030
CMB4	Crossover_4	1.0-rc12	20101005.133933	experimental	93	0	1	2v5	0.150000	1	0	0	absent	1	578	80.037
CMB4	Crossover_4	1.0-rc12	20101005.133936	experimental	94	1	8	2v5	0.150000	1	0	0	present	1	523	80.032
CMB4	Crossover_4	1.0-rc12	20101005.133940	experimental	95	0	8	2v5	0.150000	1	0	0	absent	1	717	80.021
CMB4	Crossover_4	1.0-rc12	20101005.133943	experimental	96	0	4	2v5	0.150000	1	0	0	absent	1	544	80.031
CMB4	Crossover_4	1.0-rc12	20101005.133947	experimental	97	0	4	2v5	0.150000	1	0	0	absent	1	565	80.024
CMB4	Crossover_4	1.0-rc12	20101005.133950	experimental	98	0	4	orientation	0.700000	1	0	0	absent	1	592	80.033
CMB4	Crossover_4	1.0-rc12	20101005.133954	experimental	99	1	4	orientation	0.700000	1	0	0	present	1	558	80.022
CMB4	Crossover_4	1.0-rc12	20101005.133957	experimental	100	1	4	orientation	0.700000	1	0	0	absent	0	620	80.023
CMB4	Crossover_4	1.0-rc12	20101005.134100	experimental	101	1	8	2v5	0.150000	1	0	0	absent	0	627	80.025
CMB4	Crossover_4	1.0-rc12	20101005.134104	experimental	102	0	1	orientation	0.700000	1	0	0	absent	1	551	80.021
CMB4	Crossover_4	1.0-rc12	20101005.134108	experimental	103	0	8	orientation	0.700000	1	0	0	absent	1	641	80.027
CMB4	Crossover_4	1.0-rc12	20101005.134111	experimental	104	1	2	2v5	0.150000	1	0	0	present	1	537	80.028
CMB4	Crossover_4	1.0-rc12	20101005.134115	experimental	105	1	1	2v5	0.150000	1	0	0	present	1	481	80.035
CMB4	Crossover_4	1.0-rc12	20101005.134118	experimental	106	0	4	orientation	0.700000	1	0	0	absent	1	620	80.022
CMB4	Crossover_4	1.0-rc12	20101005.134122	experimental	107	0	2	orientation	0.700000	1	0	0	present	0	634	80.030
CMB4	Crossover_4	1.0-rc12	20101005.134125	experimental	108	1	4	2v5	0.150000	1	0	0	absent	0	1133	80.033
CMB4	Crossover_4	1.0-rc12	20101005.134129	experimental	109	1	8	2v5	0.150000	1	0	0	present	1	661	80.029
CMB4	Crossover_4	1.0-rc12	20101005.134133	experimental	110	1	2	orientation	0.700000	1	0	0	present	1	606	80.028
CMB4	Crossover_4	1.0-rc12	20101005.134137	experimental	111	0	8	2v5	0.150000	1	0	0	absent	1	738	80.019
CMB4	Crossover_4	1.0-rc12	20101005.134140	experimental	112	0	1	orientation	0.700000	1	0	0	absent	1	579	80.030
CMB4	Crossover_4	1.0-rc12	20101005.134144	experimental	113	1	1	orientation	0.700000	1	0	0	present	1	537	80.037
CMB4	Crossover_4	1.0-rc12	20101005.134147	experimental	114	0	4	orientation	0.700000	1	0	0	present	0	627	80.028
CMB4	Crossover_4	1.0-rc12	20101005.134151	experimental	115	1	1	2v5	0.150000	1	0	0	present	1	509	80.028
CMB4	Crossover_4	1.0-rc12	20101005.134154	experimental	116	1	4	2v5	0.150000	1	0	0	present	1	468	80.033
CMB4	Crossover_4	1.0-rc12	20101005.134158	experimental	117	0	1	2v5	0.150000	1	0	0	absent	1	543	80.027
CMB4	Crossover_4	1.0-rc12	20101005.134201	experimental	118	1	2	2v5	0.150000	1	0	0	present	1	606	80.032
CMB4	Crossover_4	1.0-rc12	20101005.134205	experimental	119	0	8	2v5	0.150000	1	0	0	absent	1	911	80.030
CMB4	Crossover_4	1.0-rc12	20101005.134209	experimental	120	1	4	orientation	0.700000	1	0	0	absent	0	675	80.022
CMB4	Crossover_4	1.0-rc12	20101005.134212	experimental	121	1	2	orientation	0.700000	1	0	0	present	1	558	80.037
CMB4	Crossover_4	1.0-rc12	20101005.134216	experimental	122	1	2	2v5	0.150000	1	0	0	present	1	496	80.036
CMB4	Crossover_4	1.0-rc12	20101005.134219	experimental	123	0	8	orientation	0.700000	1	0	0	absent	1	558	80.026
CMB4	Crossover_4	1.0-rc12	20101005.134223	experimental	124	0	1	orientation	0.700000	1	0	0	absent	1	468	80.024
CMB4	Crossover_4	1.0-rc12	20101005.134226	experimental	125	0	1	2v5	0.150000	1	0	0	absent	1	509	80.029
CMB4	Crossover_4	1.0-rc12	20101005.134230	experimental	126	0	4	orientation	0.700000	1	0	0	absent	1	454	80.029
CMB4	Crossover_4	1.0-rc12	20101005.134233	experimental	127	0	4	orientation	0.700000	1	0	0	absent	1	495	80.035
CMB4	Crossover_4	1.0-rc12	20101005.134237	experimental	128	0	2	orientation	0.700000	1	0	0	absent	1	579	80.033
CMB4	Crossover_4	1.0-rc12	20101005.134240	experimental	129	1	8	orientation	0.700000	1	0	0	present	1	509	80.030
CMB4	Crossover_4	1.0-rc12	20101005.134244	experimental	130	1	4	2v5	0.150000	1	0	0	present	1	620	80.038
CMB4	Crossover_4	1.0-rc12	20101005.134247	experimental	131	0	4	2v5	0.150000	1	0	0	absent	1	669	80.027
CMB4	Crossover_4	1.0-rc12	20101005.134251	experimental	132	0	8	orientation	0.700000	1	0	0	absent	1	889	80.037
CMB4	Crossover_4	1.0-rc12	20101005.134255	experimental	133	0	8	orientation	0.700000	1	0	0	absent	1	543	80.027
CMB4	Crossover_4	1.0-rc12	20101005.134258	experimental	134	0	1	2v5	0.150000	1	0	0	absent	1	669	80.030
CMB4	Crossover_4	1.0-rc12	20101005.134302	experimental	135	0	1	orientation	0.700000	1	0	0	absent	1	475	80.026
CMB4	Crossover_4	1.0-rc12	20101005.134306	experimental	136	1	1	2v5	0.150000	1	0	0	present	1	537	80.027
CMB4	Crossover_4	1.0-rc12	20101005.134309	experimental	137	1	4	orientation	0.700000	1	0	0	present	1	849	80.027
CMB4	Crossover_4	1.0-rc12	20101005.134313	experimental	138	0	4	2v5	0.150000	1	0	0	absent	1	807	80.028
CMB4	Crossover_4	1.0-rc12	20101005.134317	experimental	139	0	1	orientation	0.700000	1	0	0	absent	1	475	80.028
CMB4	Crossover_4	1.0-rc12	20101005.134320	experimental	140	1	8	2v5	0.150000	1	0	0	present	1	662	80.036
CMB4	Crossover_4	1.0-rc12	20101005.134324	experimental	141	0	8	2v5	0.150000	1	0	0	absent	1	710	80.037
CMB4	Crossover_4	1.0-rc12	20101005.134327	experimental	142	0	2	orientation	0.700000	1	0	0	absent	1	475	80.021
CMB4	Crossover_4	1.0-rc12	20101005.134331	experimental	143	0	1	orientation	0.700000	1	0	0	absent	1	516	80.028
CMB4	Crossover_4	1.0-rc12	20101005.134334	experimental	144	1	2	orientation	0.700000	1	0	0	present	1	585	80.025
CMB4	Crossover_4	1.0-rc12	20101005.134338	experimental	145	0	8	2v5	0.150000	1	0	0	absent	1	779	80.036
CMB4	Crossover_4	1.0-rc12	20101005.134342	experimental	146	1	4	2v5	0.150000	1	0	0	present	1	475	80.031
CMB4	Crossover_4	1.0-rc12	20101005.134345	experimental	147	1	2	orientation	0.700000	1	0	0	present	1	606	80.037
CMB4	Crossover_4	1.0-rc12	20101005.134349	experimental	148	1	4	2v5	0.150000	1	0	0	present	1	842	80.023
CMB4	Crossover_4	1.0-rc12	20101005.134353	experimental	149	1	8	orientation	0.700000	1	0	0	present	1	731	80.037
CMB4	Crossover_4	1.0-rc12	20101005.134356	experimental	150	1	4	orientation	0.700000	1	0	0	present	1	481	80.029
CMB4	Crossover_4	1.0-rc12	20101005.134548	experimental	151	1	8	orientation	0.700000	1	0	0	present	1	634	80.031
CMB4	Crossover_4	1.0-rc12	20101005.134551	experimental	152	1	4	orientation	0.700000	1	0	0	present	1	530	80.029
CMB4	Crossover_4	1.0-rc12	20101005.134555	experimental	153	1	8	orientation	0.700000	1	0	0	present	1	773	80.022
CMB4	Crossover_4	1.0-rc12	20101005.134559	experimental	154	1	2	2v5	0.150000	1	0	0	present	1	662	80.036
CMB4	Crossover_4	1.0-rc12	20101005.134602	experimental	155	0	4	orientation	0.700000	1	0	0	absent	1	565	80.032
CMB4	Crossover_4	1.0-rc12	20101005.134606	experimental	156	1	4	2v5	0.150000	1	0	0	present	1	579	80.029
CMB4	Crossover_4	1.0-rc12	20101005.134609	experimental	157	1	4	2v5	0.150000	1	0	0	present	1	530	80.028
CMB4	Crossover_4	1.0-rc12	20101005.134613	experimental	158	0	8	2v5	0.150000	1	0	0	absent	1	592	80.034
CMB4	Crossover_4	1.0-rc12	20101005.134616	experimental	159	0	1	orientation	0.700000	1	0	0	absent	1	509	80.031
CMB4	Crossover_4	1.0-rc12	20101005.134620	experimental	160	0	8	orientation	0.700000	1	0	0	absent	1	495	80.037
CMB4	Crossover_4	1.0-rc12	20101005.134623	experimental	161	0	4	2v5	0.150000	1	0	0	absent	1	578	80.038
CMB4	Crossover_4	1.0-rc12	20101005.134627	experimental	162	1	8	2v5	0.150000	1	0	0	present	1	654	80.037
CMB4	Crossover_4	1.0-rc12	20101005.134631	experimental	163	0	2	2v5	0.150000	1	0	0	absent	1	765	80.028
CMB4	Crossover_4	1.0-rc12	20101005.134634	experimental	164	1	2	orientation	0.700000	1	0	0	present	1	606	80.039
CMB4	Crossover_4	1.0-rc12	20101005.134638	experimental	165	0	8	2v5	0.150000	1	0	0	absent	1	634	80.018
CMB4	Crossover_4	1.0-rc12	20101005.134641	experimental	166	1	4	orientation	0.700000	1	0	0	absent	0	918	80.024
CMB4	Crossover_4	1.0-rc12	20101005.134645	experimental	167	0	8	orientation	0.700000	1	0	0	absent	1	586	80.020
CMB4	Crossover_4	1.0-rc12	20101005.134649	experimental	168	1	8	2v5	0.150000	1	0	0	present	1	662	80.034
CMB4	Crossover_4	1.0-rc12	20101005.134653	experimental	169	0	8	2v5	0.150000	1	0	0	absent	1	620	80.030
CMB4	Crossover_4	1.0-rc12	20101005.134656	experimental	170	0	2	orientation	0.700000	1	0	0	absent	1	613	80.033
CMB4	Crossover_4	1.0-rc12	20101005.134700	experimental	171	1	2	2v5	0.150000	1	0	0	present	1	621	80.034
CMB4	Crossover_4	1.0-rc12	20101005.134703	experimental	172	1	4	2v5	0.150000	1	0	0	present	1	488	80.030
CMB4	Crossover_4	1.0-rc12	20101005.134707	experimental	173	0	4	2v5	0.150000	1	0	0	present	0	724	80.022
CMB4	Crossover_4	1.0-rc12	20101005.134710	experimental	174	0	4	orientation	0.700000	1	0	0	absent	1	592	80.030
CMB4	Crossover_4	1.0-rc12	20101005.134714	experimental	175	1	4	2v5	0.150000	1	0	0	present	1	523	80.024
CMB4	Crossover_4	1.0-rc12	20101005.134718	experimental	176	0	1	2v5	0.150000	1	0	0	absent	1	502	80.038
CMB4	Crossover_4	1.0-rc12	20101005.134721	experimental	177	0	1	2v5	0.150000	1	0	0	absent	1	551	80.028
CMB4	Crossover_4	1.0-rc12	20101005.134725	experimental	178	0	1	orientation	0.700000	1	0	0	absent	1	606	80.025
CMB4	Crossover_4	1.0-rc12	20101005.134728	experimental	179	1	2	orientation	0.700000	1	0	0	present	1	627	80.028
CMB4	Crossover_4	1.0-rc12	20101005.134732	experimental	180	1	8	2v5	0.150000	1	0	0	present	1	690	80.021
CMB4	Crossover_4	1.0-rc12	20101005.134735	experimental	181	0	8	2v5	0.150000	1	0	0	absent	1	627	80.028
CMB4	Crossover_4	1.0-rc12	20101005.134739	experimental	182	1	8	orientation	0.700000	1	0	0	present	1	572	80.028
CMB4	Crossover_4	1.0-rc12	20101005.134743	experimental	183	1	2	2v5	0.150000	1	0	0	present	1	641	80.029
CMB4	Crossover_4	1.0-rc12	20101005.134746	experimental	184	0	4	2v5	0.150000	1	0	0	absent	1	609	80.035
CMB4	Crossover_4	1.0-rc12	20101005.134750	experimental	185	0	4	orientation	0.700000	1	0	0	absent	1	578	80.029
CMB4	Crossover_4	1.0-rc12	20101005.134753	experimental	186	1	1	2v5	0.150000	1	0	0	present	1	461	80.038
CMB4	Crossover_4	1.0-rc12	20101005.134757	experimental	187	1	2	orientation	0.700000	1	0	0	present	1	516	80.022
CMB4	Crossover_4	1.0-rc12	20101005.134800	experimental	188	0	1	2v5	0.150000	1	0	0	absent	1	502	80.029
CMB4	Crossover_4	1.0-rc12	20101005.134804	experimental	189	0	8	orientation	0.700000	1	0	0	absent	1	586	80.024
CMB4	Crossover_4	1.0-rc12	20101005.134807	experimental	190	0	8	orientation	0.700000	1	0	0	absent	1	585	80.035
CMB4	Crossover_4	1.0-rc12	20101005.134811	experimental	191	0	1	orientation	0.700000	1	0	0	absent	1	564	80.029
CMB4	Crossover_4	1.0-rc12	20101005.134814	experimental	192	1	4	2v5	0.150000	1	0	0	absent	0	675	80.028
CMB4	Crossover_4	1.0-rc12	20101005.134818	experimental	193	0	8	2v5	0.150000	1	0	0	absent	1	648	80.028
CMB4	Crossover_4	1.0-rc12	20101005.134822	experimental	194	1	4	orientation	0.700000	1	0	0	absent	0	641	80.026
CMB4	Crossover_4	1.0-rc12	20101005.134825	experimental	195	1	1	orientation	0.700000	1	0	0	present	1	481	80.032
CMB4	Crossover_4	1.0-rc12	20101005.134829	experimental	196	1	1	orientation	0.700000	1	0	0	present	1	647	80.031
CMB4	Crossover_4	1.0-rc12	20101005.134832	experimental	197	0	1	2v5	0.150000	1	0	0	absent	1	550	80.029
CMB4	Crossover_4	1.0-rc12	20101005.134836	experimental	198	0	8	orientation	0.700000	1	0	0	present	0	730	80.027
CMB4	Crossover_4	1.0-rc12	20101005.134840	experimental	199	0	2	2v5	0.150000	1	0	0	absent	1	787	80.035
CMB4	Crossover_4	1.0-rc12	20101005.134843	experimental	200	0	8	orientation	0.700000	1	0	0	absent	1	586	80.030
CMB4	Crossover_4	1.0-rc12	20101005.135115	experimental	201	0	8	orientation	0.700000	1	0	0	absent	1	516	80.021
CMB4	Crossover_4	1.0-rc12	20101005.135118	experimental	202	1	1	2v5	0.150000	1	0	0	present	1	599	80.032
CMB4	Crossover_4	1.0-rc12	20101005.135122	experimental	203	1	2	2v5	0.150000	1	0	0	present	1	641	80.026
CMB4	Crossover_4	1.0-rc12	20101005.135125	experimental	204	1	1	2v5	0.150000	1	0	0	present	1	868	80.027
CMB4	Crossover_4	1.0-rc12	20101005.135129	experimental	205	0	4	2v5	0.150000	1	0	0	absent	1	599	80.030
CMB4	Crossover_4	1.0-rc12	20101005.135133	experimental	206	0	1	2v5	0.150000	1	0	0	absent	1	550	80.024
CMB4	Crossover_4	1.0-rc12	20101005.135136	experimental	207	1	4	orientation	0.700000	1	0	0	absent	0	516	80.030
CMB4	Crossover_4	1.0-rc12	20101005.135140	experimental	208	1	8	2v5	0.150000	1	0	0	present	1	530	80.028
CMB4	Crossover_4	1.0-rc12	20101005.135143	experimental	209	1	1	orientation	0.700000	1	0	0	present	1	579	80.031
CMB4	Crossover_4	1.0-rc12	20101005.135147	experimental	210	0	1	2v5	0.150000	1	0	0	absent	1	710	80.037
CMB4	Crossover_4	1.0-rc12	20101005.135151	experimental	211	0	8	orientation	0.700000	1	0	0	absent	1	496	80.034
CMB4	Crossover_4	1.0-rc12	20101005.135154	experimental	212	1	2	orientation	0.700000	1	0	0	present	1	488	80.022
CMB4	Crossover_4	1.0-rc12	20101005.135158	experimental	213	0	2	orientation	0.700000	1	0	0	absent	1	544	80.033
CMB4	Crossover_4	1.0-rc12	20101005.135201	experimental	214	0	2	2v5	0.150000	1	0	0	absent	1	807	80.035
CMB4	Crossover_4	1.0-rc12	20101005.135205	experimental	215	1	8	2v5	0.150000	1	0	0	present	1	710	80.024
CMB4	Crossover_4	1.0-rc12	20101005.135208	experimental	216	0	1	2v5	0.150000	1	0	0	absent	1	600	80.032
CMB4	Crossover_4	1.0-rc12	20101005.135212	experimental	217	1	4	2v5	0.150000	1	0	0	absent	0	661	80.024
CMB4	Crossover_4	1.0-rc12	20101005.135216	experimental	218	0	4	orientation	0.700000	1	0	0	absent	1	530	80.030
CMB4	Crossover_4	1.0-rc12	20101005.135219	experimental	219	1	8	2v5	0.150000	1	0	0	absent	0	1327	80.039
CMB4	Crossover_4	1.0-rc12	20101005.135223	experimental	220	1	4	orientation	0.700000	1	0	0	present	1	565	80.027
CMB4	Crossover_4	1.0-rc12	20101005.135227	experimental	221	1	8	2v5	0.150000	1	0	0	present	1	551	80.027
CMB4	Crossover_4	1.0-rc12	20101005.135231	experimental	222	1	8	orientation	0.700000	1	0	0	present	1	724	80.029
CMB4	Crossover_4	1.0-rc12	20101005.135234	experimental	223	0	1	2v5	0.150000	1	0	0	absent	1	633	80.025
CMB4	Crossover_4	1.0-rc12	20101005.135238	experimental	224	1	8	2v5	0.150000	1	0	0	present	1	537	80.031
CMB4	Crossover_4	1.0-rc12	20101005.135241	experimental	225	1	4	orientation	0.700000	1	0	0	present	1	558	80.035
CMB4	Crossover_4	1.0-rc12	20101005.135245	experimental	226	0	8	2v5	0.150000	1	0	0	present	0	827	80.027
CMB4	Crossover_4	1.0-rc12	20101005.135249	experimental	227	0	2	2v5	0.150000	1	0	0	absent	1	1084	80.036
CMB4	Crossover_4	1.0-rc12	20101005.135253	experimental	228	1	8	orientation	0.700000	1	0	0	present	1	613	80.035
CMB4	Crossover_4	1.0-rc12	20101005.135256	experimental	229	1	1	orientation	0.700000	1	0	0	present	1	565	80.033
CMB4	Crossover_4	1.0-rc12	20101005.135300	experimental	230	1	2	orientation	0.700000	1	0	0	present	1	454	80.029
CMB4	Crossover_4	1.0-rc12	20101005.135303	experimental	231	0	1	orientation	0.700000	1	0	0	present	0	828	80.030
CMB4	Crossover_4	1.0-rc12	20101005.135307	experimental	232	0	2	2v5	0.150000	1	0	0	absent	1	1292	80.021
CMB4	Crossover_4	1.0-rc12	20101005.135311	experimental	233	0	4	2v5	0.150000	1	0	0	present	0	1645	80.036
CMB4	Crossover_4	1.0-rc12	20101005.135316	experimental	234	1	8	2v5	0.150000	1	0	0	present	1	634	80.033
CMB4	Crossover_4	1.0-rc12	20101005.135320	experimental	235	1	2	2v5	0.150000	1	0	0	present	1	620	80.027
CMB4	Crossover_4	1.0-rc12	20101005.135323	experimental	236	0	2	2v5	0.150000	1	0	0	absent	1	579	80.036
CMB4	Crossover_4	1.0-rc12	20101005.135327	experimental	237	0	1	2v5	0.150000	1	0	0	absent	1	488	80.035
CMB4	Crossover_4	1.0-rc12	20101005.135330	experimental	238	0	1	2v5	0.150000	1	0	0	absent	1	856	80.030
CMB4	Crossover_4	1.0-rc12	20101005.135334	experimental	239	1	1	2v5	0.150000	1	0	0	present	1	530	80.032
CMB4	Crossover_4	1.0-rc12	20101005.135337	experimental	240	1	8	orientation	0.700000	1	0	0	present	1	558	80.034
CMB4	Crossover_4	1.0-rc12	20101005.135341	experimental	241	1	4	2v5	0.150000	1	0	0	absent	0	620	80.033
CMB4	Crossover_4	1.0-rc12	20101005.135345	experimental	242	1	2	2v5	0.150000	1	0	0	present	1	648	80.028
CMB4	Crossover_4	1.0-rc12	20101005.135348	experimental	243	1	8	orientation	0.700000	1	0	0	absent	0	855	80.029
CMB4	Crossover_4	1.0-rc12	20101005.135352	experimental	244	1	4	2v5	0.150000	1	0	0	absent	0	738	80.037
CMB4	Crossover_4	1.0-rc12	20101005.135356	experimental	245	0	8	2v5	0.150000	1	0	0	absent	1	634	80.023
CMB4	Crossover_4	1.0-rc12	20101005.135359	experimental	246	1	8	2v5	0.150000	1	0	0	present	1	579	80.029
CMB4	Crossover_4	1.0-rc12	20101005.135403	experimental	247	0	1	2v5	0.150000	1	0	0	absent	1	509	80.030
CMB4	Crossover_4	1.0-rc12	20101005.135406	experimental	248	0	2	orientation	0.700000	1	0	0	absent	1	662	80.031
CMB4	Crossover_4	1.0-rc12	20101005.135410	experimental	249	1	1	orientation	0.700000	1	0	0	present	1	537	80.030
CMB4	Crossover_4	1.0-rc12	20101005.135413	experimental	250	1	1	2v5	0.150000	1	0	0	present	1	738	80.030
CMB4	Crossover_4	1.0-rc12	20101005.135434	experimental	251	0	8	orientation	0.700000	1	0	0	absent	1	530	80.022
CMB4	Crossover_4	1.0-rc12	20101005.135437	experimental	252	0	1	2v5	0.150000	1	0	0	absent	1	523	80.030
CMB4	Crossover_4	1.0-rc12	20101005.135441	experimental	253	1	8	2v5	0.150000	1	0	0	absent	0	565	80.023
CMB4	Crossover_4	1.0-rc12	20101005.135444	experimental	254	1	8	orientation	0.700000	1	0	0	absent	0	821	80.029
CMB4	Crossover_4	1.0-rc12	20101005.135448	experimental	255	0	4	2v5	0.150000	1	0	0	absent	1	876	80.020
CMB4	Crossover_4	1.0-rc12	20101005.135452	experimental	256	0	1	2v5	0.150000	1	0	0	absent	1	468	80.024
CMB4	Crossover_4	1.0-rc12	20101005.135455	experimental	257	1	4	2v5	0.150000	1	0	0	absent	0	606	80.036
CMB4	Crossover_4	1.0-rc12	20101005.135459	experimental	258	0	8	orientation	0.700000	1	0	0	absent	1	800	80.027
CMB4	Crossover_4	1.0-rc12	20101005.135503	experimental	259	0	4	2v5	0.150000	1	0	0	absent	1	737	80.031
CMB4	Crossover_4	1.0-rc12	20101005.135506	experimental	260	1	2	2v5	0.150000	1	0	0	present	1	571	80.032
CMB4	Crossover_4	1.0-rc12	20101005.135510	experimental	261	0	2	orientation	0.700000	1	0	0	absent	1	544	80.031
CMB4	Crossover_4	1.0-rc12	20101005.135513	experimental	262	1	4	2v5	0.150000	1	0	0	present	1	523	80.038
CMB4	Crossover_4	1.0-rc12	20101005.135517	experimental	263	1	4	2v5	0.150000	1	0	0	absent	0	669	80.024
CMB4	Crossover_4	1.0-rc12	20101005.135520	experimental	264	0	2	orientation	0.700000	1	0	0	absent	1	454	80.032
CMB4	Crossover_4	1.0-rc12	20101005.135524	experimental	265	0	4	2v5	0.150000	1	0	0	absent	1	759	80.029
CMB4	Crossover_4	1.0-rc12	20101005.135528	experimental	266	1	2	2v5	0.150000	1	0	0	present	1	488	80.026
CMB4	Crossover_4	1.0-rc12	20101005.135531	experimental	267	0	1	orientation	0.700000	1	0	0	absent	1	683	80.034
CMB4	Crossover_4	1.0-rc12	20101005.135535	experimental	268	1	1	orientation	0.700000	1	0	0	present	1	620	80.035
CMB4	Crossover_4	1.0-rc12	20101005.135538	experimental	269	0	4	2v5	0.150000	1	0	0	absent	1	703	80.028
CMB4	Crossover_4	1.0-rc12	20101005.135542	experimental	270	1	4	orientation	0.700000	1	0	0	present	1	558	80.033
CMB4	Crossover_4	1.0-rc12	20101005.135545	experimental	271	1	4	orientation	0.700000	1	0	0	present	1	474	80.027
CMB4	Crossover_4	1.0-rc12	20101005.135549	experimental	272	0	2	2v5	0.150000	1	0	0	present	0	613	80.034
CMB4	Crossover_4	1.0-rc12	20101005.135552	experimental	273	0	4	2v5	0.150000	1	0	0	absent	1	745	80.035
CMB4	Crossover_4	1.0-rc12	20101005.135556	experimental	274	1	4	orientation	0.700000	1	0	0	present	1	592	80.018
CMB4	Crossover_4	1.0-rc12	20101005.135600	experimental	275	1	8	2v5	0.150000	1	0	0	absent	0	1527	80.030
CMB4	Crossover_4	1.0-rc12	20101005.135604	experimental	276	0	8	2v5	0.150000	1	0	0	absent	1	634	80.022
CMB4	Crossover_4	1.0-rc12	20101005.135608	experimental	277	1	1	orientation	0.700000	1	0	0	present	1	641	80.024
CMB4	Crossover_4	1.0-rc12	20101005.135611	experimental	278	1	2	2v5	0.150000	1	0	0	present	1	669	80.033
CMB4	Crossover_4	1.0-rc12	20101005.135615	experimental	279	0	4	orientation	0.700000	1	0	0	absent	1	558	80.021
CMB4	Crossover_4	1.0-rc12	20101005.135619	experimental	280	0	1	orientation	0.700000	1	0	0	absent	1	558	80.028
CMB4	Crossover_4	1.0-rc12	20101005.135622	experimental	281	0	4	orientation	0.700000	1	0	0	absent	1	475	80.036
CMB4	Crossover_4	1.0-rc12	20101005.135626	experimental	282	1	2	2v5	0.150000	1	0	0	present	1	502	80.027
CMB4	Crossover_4	1.0-rc12	20101005.135629	experimental	283	0	8	orientation	0.700000	1	0	0	absent	1	689	80.036
CMB4	Crossover_4	1.0-rc12	20101005.135633	experimental	284	1	1	orientation	0.700000	1	0	0	present	1	565	80.027
CMB4	Crossover_4	1.0-rc12	20101005.135636	experimental	285	0	4	2v5	0.150000	1	0	0	present	0	710	80.022
CMB4	Crossover_4	1.0-rc12	20101005.135640	experimental	286	1	8	orientation	0.700000	1	0	0	present	1	641	80.034
CMB4	Crossover_4	1.0-rc12	20101005.135643	experimental	287	1	2	orientation	0.700000	1	0	0	present	1	530	80.033
CMB4	Crossover_4	1.0-rc12	20101005.135647	experimental	288	0	8	orientation	0.700000	1	0	0	present	0	623	80.025
CMB4	Crossover_4	1.0-rc12	20101005.135651	experimental	289	1	2	orientation	0.700000	1	0	0	present	1	571	80.038
CMB4	Crossover_4	1.0-rc12	20101005.135654	experimental	290	0	8	orientation	0.700000	1	0	0	absent	1	578	80.029
CMB4	Crossover_4	1.0-rc12	20101005.135658	experimental	291	0	1	orientation	0.700000	1	0	0	absent	1	481	80.032
CMB4	Crossover_4	1.0-rc12	20101005.135701	experimental	292	0	2	orientation	0.700000	1	0	0	absent	1	703	80.022
CMB4	Crossover_4	1.0-rc12	20101005.135705	experimental	293	1	2	orientation	0.700000	1	0	0	present	1	655	80.032
CMB4	Crossover_4	1.0-rc12	20101005.135708	experimental	294	0	1	2v5	0.150000	1	0	0	absent	1	572	80.026
CMB4	Crossover_4	1.0-rc12	20101005.135712	experimental	295	0	2	orientation	0.700000	1	0	0	absent	1	495	80.021
CMB4	Crossover_4	1.0-rc12	20101005.135715	experimental	296	1	2	2v5	0.150000	1	0	0	present	1	571	80.019
CMB4	Crossover_4	1.0-rc12	20101005.135719	experimental	297	0	8	orientation	0.700000	1	0	0	absent	1	675	80.029
CMB4	Crossover_4	1.0-rc12	20101005.135723	experimental	298	1	4	2v5	0.150000	1	0	0	present	1	509	80.025
CMB4	Crossover_4	1.0-rc12	20101005.135726	experimental	299	1	8	2v5	0.150000	1	0	0	absent	0	765	80.019
CMB4	Crossover_4	1.0-rc12	20101005.135730	experimental	300	1	8	2v5	0.150000	1	0	0	present	1	523	80.028
CMB4	Crossover_4	1.0-rc12	20101005.135742	experimental	301	1	1	2v5	0.150000	1	0	0	present	1	751	80.033
CMB4	Crossover_4	1.0-rc12	20101005.135746	experimental	302	0	1	orientation	0.700000	1	0	0	absent	1	689	80.028
CMB4	Crossover_4	1.0-rc12	20101005.135749	experimental	303	0	2	orientation	0.700000	1	0	0	absent	1	509	80.022
CMB4	Crossover_4	1.0-rc12	20101005.135753	experimental	304	0	4	2v5	0.150000	1	0	0	absent	1	945	80.031
CMB4	Crossover_4	1.0-rc12	20101005.135757	experimental	305	1	1	orientation	0.700000	1	0	0	present	1	586	80.030
CMB4	Crossover_4	1.0-rc12	20101005.135800	experimental	306	1	2	2v5	0.150000	1	0	0	present	1	509	80.038
CMB4	Crossover_4	1.0-rc12	20101005.135804	experimental	307	0	2	2v5	0.150000	1	0	0	absent	1	606	80.029
CMB4	Crossover_4	1.0-rc12	20101005.135807	experimental	308	0	2	2v5	0.150000	1	0	0	present	0	1513	80.021
CMB4	Crossover_4	1.0-rc12	20101005.135812	experimental	309	1	2	2v5	0.150000	1	0	0	present	1	482	80.022
CMB4	Crossover_4	1.0-rc12	20101005.135815	experimental	310	0	8	2v5	0.150000	1	0	0	absent	1	661	80.031
CMB4	Crossover_4	1.0-rc12	20101005.135819	experimental	311	0	8	2v5	0.150000	1	0	0	absent	1	572	80.022
CMB4	Crossover_4	1.0-rc12	20101005.135823	experimental	312	0	8	2v5	0.150000	1	0	0	absent	1	593	80.029
CMB4	Crossover_4	1.0-rc12	20101005.135826	experimental	313	1	4	orientation	0.700000	1	0	0	absent	0	1395	80.033
CMB4	Crossover_4	1.0-rc12	20101005.135830	experimental	314	0	2	orientation	0.700000	1	0	0	absent	1	641	80.031
CMB4	Crossover_4	1.0-rc12	20101005.135834	experimental	315	0	4	orientation	0.700000	1	0	0	absent	1	606	80.028
CMB4	Crossover_4	1.0-rc12	20101005.135838	experimental	316	0	2	2v5	0.150000	1	0	0	absent	1	1118	80.023
CMB4	Crossover_4	1.0-rc12	20101005.135842	experimental	317	1	8	orientation	0.700000	1	0	0	present	1	641	80.034
CMB4	Crossover_4	1.0-rc12	20101005.135845	experimental	318	1	4	2v5	0.150000	1	0	0	present	1	571	80.028
CMB4	Crossover_4	1.0-rc12	20101005.135849	experimental	319	1	1	2v5	0.150000	1	0	0	present	1	481	80.032
CMB4	Crossover_4	1.0-rc12	20101005.135852	experimental	320	1	4	2v5	0.150000	1	0	0	present	1	579	80.026
CMB4	Crossover_4	1.0-rc12	20101005.135856	experimental	321	1	2	2v5	0.150000	1	0	0	present	1	517	80.033
CMB4	Crossover_4	1.0-rc12	20101005.135859	experimental	322	1	8	orientation	0.700000	1	0	0	present	1	592	80.038
CMB4	Crossover_4	1.0-rc12	20101005.135903	experimental	323	1	8	2v5	0.150000	1	0	0	present	1	495	80.023
CMB4	Crossover_4	1.0-rc12	20101005.135906	experimental	324	1	2	orientation	0.700000	1	0	0	present	1	557	80.036
CMB4	Crossover_4	1.0-rc12	20101005.135910	experimental	325	0	2	2v5	0.150000	1	0	0	absent	1	696	80.021
CMB4	Crossover_4	1.0-rc12	20101005.135914	experimental	326	1	2	orientation	0.700000	1	0	0	present	1	579	80.024
CMB4	Crossover_4	1.0-rc12	20101005.135917	experimental	327	0	4	2v5	0.150000	1	0	0	absent	1	648	80.029
CMB4	Crossover_4	1.0-rc12	20101005.135921	experimental	328	0	2	2v5	0.150000	1	0	0	absent	1	627	80.036
CMB4	Crossover_4	1.0-rc12	20101005.135924	experimental	329	0	2	orientation	0.700000	1	0	0	absent	1	461	80.028
CMB4	Crossover_4	1.0-rc12	20101005.135928	experimental	330	0	2	2v5	0.150000	1	0	0	absent	1	565	80.024
CMB4	Crossover_4	1.0-rc12	20101005.135931	experimental	331	0	1	2v5	0.150000	1	0	0	absent	1	530	80.026
CMB4	Crossover_4	1.0-rc12	20101005.135935	experimental	332	0	1	2v5	0.150000	1	0	0	absent	1	710	80.025
CMB4	Crossover_4	1.0-rc12	20101005.135938	experimental	333	0	4	orientation	0.700000	1	0	0	absent	1	599	80.028
CMB4	Crossover_4	1.0-rc12	20101005.135942	experimental	334	1	2	orientation	0.700000	1	0	0	present	1	1014	80.023
CMB4	Crossover_4	1.0-rc12	20101005.135946	experimental	335	0	8	2v5	0.150000	1	0	0	absent	1	703	80.027
CMB4	Crossover_4	1.0-rc12	20101005.135950	experimental	336	0	1	orientation	0.700000	1	0	0	absent	1	482	80.025
CMB4	Crossover_4	1.0-rc12	20101005.135953	experimental	337	0	4	2v5	0.150000	1	0	0	absent	1	745	80.024
CMB4	Crossover_4	1.0-rc12	20101005.135957	experimental	338	0	1	orientation	0.700000	1	0	0	absent	1	482	80.036
CMB4	Crossover_4	1.0-rc12	20101005.140000	experimental	339	1	2	2v5	0.150000	1	0	0	present	1	578	80.037
CMB4	Crossover_4	1.0-rc12	20101005.140004	experimental	340	1	1	orientation	0.700000	1	0	0	present	1	620	80.028
CMB4	Crossover_4	1.0-rc12	20101005.140007	experimental	341	0	2	2v5	0.150000	1	0	0	present	0	738	80.031
CMB4	Crossover_4	1.0-rc12	20101005.140011	experimental	342	1	4	orientation	0.700000	1	0	0	absent	0	523	80.022
CMB4	Crossover_4	1.0-rc12	20101005.140014	experimental	343	0	8	orientation	0.700000	1	0	0	absent	1	523	80.030
CMB4	Crossover_4	1.0-rc12	20101005.140018	experimental	344	1	8	orientation	0.700000	1	0	0	present	1	606	80.035
CMB4	Crossover_4	1.0-rc12	20101005.140022	experimental	345	1	1	2v5	0.150000	1	0	0	present	1	648	80.034
CMB4	Crossover_4	1.0-rc12	20101005.140025	experimental	346	1	4	2v5	0.150000	1	0	0	absent	0	648	80.029
CMB4	Crossover_4	1.0-rc12	20101005.140029	experimental	347	1	2	orientation	0.700000	1	0	0	present	1	640	80.031
CMB4	Crossover_4	1.0-rc12	20101005.140032	experimental	348	1	1	2v5	0.150000	1	0	0	present	1	502	80.027
CMB4	Crossover_4	1.0-rc12	20101005.140036	experimental	349	1	4	2v5	0.150000	1	0	0	present	1	571	80.032
CMB4	Crossover_4	1.0-rc12	20101005.140039	experimental	350	0	4	orientation	0.700000	1	0	0	absent	1	765	80.023
CMB4	Crossover_4	1.0-rc12	20101005.140104	experimental	351	0	2	2v5	0.150000	1	0	0	absent	1	849	80.025
CMB4	Crossover_4	1.0-rc12	20101005.140108	experimental	352	1	4	orientation	0.700000	1	0	0	present	1	661	80.021
CMB4	Crossover_4	1.0-rc12	20101005.140111	experimental	353	1	2	orientation	0.700000	1	0	0	present	1	482	80.032
CMB4	Crossover_4	1.0-rc12	20101005.140115	experimental	354	0	2	2v5	0.150000	1	0	0	absent	1	724	80.032
CMB4	Crossover_4	1.0-rc12	20101005.140118	experimental	355	0	4	orientation	0.700000	1	0	0	absent	1	585	80.036
CMB4	Crossover_4	1.0-rc12	20101005.140122	experimental	356	1	8	orientation	0.700000	1	0	0	present	1	544	80.019
CMB4	Crossover_4	1.0-rc12	20101005.140125	experimental	357	0	8	2v5	0.150000	1	0	0	absent	1	675	80.022
CMB4	Crossover_4	1.0-rc12	20101005.140129	experimental	358	1	8	orientation	0.700000	1	0	0	present	1	447	80.026
CMB4	Crossover_4	1.0-rc12	20101005.140133	experimental	359	0	8	orientation	0.700000	1	0	0	present	0	613	80.036
CMB4	Crossover_4	1.0-rc12	20101005.140136	experimental	360	0	2	2v5	0.150000	1	0	0	absent	1	641	80.033
CMB4	Crossover_4	1.0-rc12	20101005.140140	experimental	361	0	2	orientation	0.700000	1	0	0	absent	1	489	80.032
CMB4	Crossover_4	1.0-rc12	20101005.140143	experimental	362	1	4	orientation	0.700000	1	0	0	absent	0	585	80.036
CMB4	Crossover_4	1.0-rc12	20101005.140147	experimental	363	0	4	orientation	0.700000	1	0	0	present	0	655	80.027
CMB4	Crossover_4	1.0-rc12	20101005.140150	experimental	364	0	2	orientation	0.700000	1	0	0	absent	1	530	80.030
CMB4	Crossover_4	1.0-rc12	20101005.140154	experimental	365	0	1	2v5	0.150000	1	0	0	absent	1	633	80.032
CMB4	Crossover_4	1.0-rc12	20101005.140158	experimental	366	1	8	orientation	0.700000	1	0	0	absent	0	648	80.034
CMB4	Crossover_4	1.0-rc12	20101005.140201	experimental	367	0	8	2v5	0.150000	1	0	0	present	0	620	80.020
CMB4	Crossover_4	1.0-rc12	20101005.140205	experimental	368	1	4	orientation	0.700000	1	0	0	present	1	606	80.032
CMB4	Crossover_4	1.0-rc12	20101005.140208	experimental	369	0	8	2v5	0.150000	1	0	0	absent	1	779	80.033
CMB4	Crossover_4	1.0-rc12	20101005.140212	experimental	370	1	2	orientation	0.700000	1	0	0	present	1	669	80.033
CMB4	Crossover_4	1.0-rc12	20101005.140216	experimental	371	1	8	orientation	0.700000	1	0	0	present	1	544	80.027
CMB4	Crossover_4	1.0-rc12	20101005.140219	experimental	372	0	4	2v5	0.150000	1	0	0	absent	1	565	80.025
CMB4	Crossover_4	1.0-rc12	20101005.140223	experimental	373	1	4	orientation	0.700000	1	0	0	absent	0	703	80.036
CMB4	Crossover_4	1.0-rc12	20101005.140226	experimental	374	0	2	orientation	0.700000	1	0	0	absent	1	454	80.028
CMB4	Crossover_4	1.0-rc12	20101005.140230	experimental	375	1	8	orientation	0.700000	1	0	0	absent	0	1250	80.026
CMB4	Crossover_4	1.0-rc12	20101005.140234	experimental	376	0	8	orientation	0.700000	1	0	0	absent	1	842	80.027
CMB4	Crossover_4	1.0-rc12	20101005.140238	experimental	377	0	8	2v5	0.150000	1	0	0	present	0	1332	80.035
CMB4	Crossover_4	1.0-rc12	20101005.140242	experimental	378	0	2	orientation	0.700000	1	0	0	absent	1	440	80.032
CMB4	Crossover_4	1.0-rc12	20101005.140246	experimental	379	0	1	orientation	0.700000	1	0	0	absent	1	558	80.030
CMB4	Crossover_4	1.0-rc12	20101005.140249	experimental	380	0	2	orientation	0.700000	1	0	0	absent	1	481	80.029
CMB4	Crossover_4	1.0-rc12	20101005.140253	experimental	381	0	1	orientation	0.700000	1	0	0	absent	1	447	80.029
CMB4	Crossover_4	1.0-rc12	20101005.140256	experimental	382	1	1	2v5	0.150000	1	0	0	present	1	565	80.025
CMB4	Crossover_4	1.0-rc12	20101005.140300	experimental	383	0	4	orientation	0.700000	1	0	0	absent	1	440	80.024
CMB4	Crossover_4	1.0-rc12	20101005.140303	experimental	384	0	8	2v5	0.150000	1	0	0	absent	1	592	80.026
CMB4	Crossover_4	1.0-rc12	20101005.140307	experimental	385	0	2	orientation	0.700000	1	0	0	absent	1	509	80.018
CMB4	Crossover_4	1.0-rc12	20101005.140310	experimental	386	1	8	2v5	0.150000	1	0	0	present	1	544	80.027
CMB4	Crossover_4	1.0-rc12	20101005.140314	experimental	387	0	1	orientation	0.700000	1	0	0	absent	1	447	80.035
CMB4	Crossover_4	1.0-rc12	20101005.140317	experimental	388	1	1	orientation	0.700000	1	0	0	present	1	564	80.020
CMB4	Crossover_4	1.0-rc12	20101005.140321	experimental	389	0	4	orientation	0.700000	1	0	0	absent	1	558	80.028
CMB4	Crossover_4	1.0-rc12	20101005.140324	experimental	390	1	8	2v5	0.150000	1	0	0	present	1	502	80.033
CMB4	Crossover_4	1.0-rc12	20101005.140328	experimental	391	0	1	2v5	0.150000	1	0	0	absent	1	586	80.030
CMB4	Crossover_4	1.0-rc12	20101005.140331	experimental	392	1	2	orientation	0.700000	1	0	0	present	1	523	80.025
CMB4	Crossover_4	1.0-rc12	20101005.140335	experimental	393	1	1	orientation	0.700000	1	0	0	present	1	585	80.035
CMB4	Crossover_4	1.0-rc12	20101005.140338	experimental	394	0	1	orientation	0.700000	1	0	0	absent	1	551	80.028
CMB4	Crossover_4	1.0-rc12	20101005.140342	experimental	395	1	4	orientation	0.700000	1	0	0	present	1	537	80.029
CMB4	Crossover_4	1.0-rc12	20101005.140345	experimental	396	1	1	2v5	0.150000	1	0	0	present	1	709	80.032
CMB4	Crossover_4	1.0-rc12	20101005.140349	experimental	397	1	1	orientation	0.700000	1	0	0	present	1	579	80.035
CMB4	Crossover_4	1.0-rc12	20101005.140353	experimental	398	1	2	2v5	0.150000	1	0	0	present	1	510	80.036
CMB4	Crossover_4	1.0-rc12	20101005.140356	experimental	399	1	8	orientation	0.700000	1	0	0	present	1	516	80.035
CMB4	Crossover_4	1.0-rc12	20101005.140400	experimental	400	1	1	orientation	0.700000	1	0	0	present	1	489	80.023
CMB4	Crossover_4	1.0-rc12	20101007.130824	practice	1	1	8	2v5	0.150000	1	0	0	absent	0	738	80.025
CMB4	Crossover_4	1.0-rc12	20101007.130828	practice	2	0	4	2v5	0.150000	1	0	0	absent	1	625	80.023
CMB4	Crossover_4	1.0-rc12	20101007.130832	practice	3	0	2	orientation	0.700000	1	0	0	absent	1	632	80.032
CMB4	Crossover_4	1.0-rc12	20101007.130836	practice	4	0	2	2v5	0.150000	1	0	0	absent	1	543	80.020
CMB4	Crossover_4	1.0-rc12	20101007.130839	practice	5	0	1	2v5	0.150000	1	0	0	absent	1	577	80.025
CMB4	Crossover_4	1.0-rc12	20101007.130843	practice	6	1	8	2v5	0.150000	1	0	0	present	1	611	80.033
CMB4	Crossover_4	1.0-rc12	20101007.130846	practice	7	0	4	2v5	0.150000	1	0	0	present	0	584	80.034
CMB4	Crossover_4	1.0-rc12	20101007.130850	practice	8	0	2	orientation	0.700000	1	0	0	present	0	570	80.032
CMB4	Crossover_4	1.0-rc12	20101007.130853	practice	9	1	1	2v5	0.150000	1	0	0	present	1	577	80.029
CMB4	Crossover_4	1.0-rc12	20101007.130857	practice	10	1	1	orientation	0.700000	1	0	0	present	1	474	80.029
CMB4	Crossover_4	1.0-rc12	20101007.130900	practice	11	0	1	orientation	0.700000	1	0	0	absent	1	577	80.038
CMB4	Crossover_4	1.0-rc12	20101007.130904	practice	12	0	4	2v5	0.150000	1	0	0	absent	1	550	80.033
CMB4	Crossover_4	1.0-rc12	20101007.130907	practice	13	1	4	2v5	0.150000	1	0	0	present	1	529	80.029
CMB4	Crossover_4	1.0-rc12	20101007.130911	practice	14	0	4	orientation	0.700000	1	0	0	absent	1	549	80.029
CMB4	Crossover_4	1.0-rc12	20101007.130914	practice	15	0	8	orientation	0.700000	1	0	0	absent	1	908	80.028
CMB4	Crossover_4	1.0-rc12	20101007.130918	practice	16	0	1	2v5	0.150000	1	0	0	absent	1	646	80.031
CMB4	Crossover_4	1.0-rc12	20101007.130922	practice	17	0	4	2v5	0.150000	1	0	0	absent	1	804	80.037
CMB4	Crossover_4	1.0-rc12	20101007.130926	practice	18	0	2	2v5	0.150000	1	0	0	absent	1	543	80.028
CMB4	Crossover_4	1.0-rc12	20101007.130929	practice	19	1	8	orientation	0.700000	1	0	0	present	1	494	80.031
CMB4	Crossover_4	1.0-rc12	20101007.130933	practice	20	1	8	2v5	0.150000	1	0	0	present	1	556	80.040
CMB4	Crossover_4	1.0-rc12	20101007.130936	practice	21	1	4	orientation	0.700000	1	0	0	present	1	474	80.034
CMB4	Crossover_4	1.0-rc12	20101007.130940	practice	22	1	8	orientation	0.700000	1	0	0	present	1	508	80.036
CMB4	Crossover_4	1.0-rc12	20101007.130943	practice	23	0	1	orientation	0.700000	1	0	0	absent	1	605	80.037
CMB4	Crossover_4	1.0-rc12	20101007.130947	practice	24	1	4	2v5	0.150000	1	0	0	present	1	536	80.026
CMB4	Crossover_4	1.0-rc12	20101007.130950	practice	25	0	2	2v5	0.150000	1	0	0	absent	1	1046	80.033
CMB4	Crossover_4	1.0-rc12	20101007.130954	practice	26	0	4	orientation	0.700000	1	0	0	absent	1	529	80.029
CMB4	Crossover_4	1.0-rc12	20101007.130958	practice	27	1	1	2v5	0.150000	1	0	0	present	1	563	80.034
CMB4	Crossover_4	1.0-rc12	20101007.131001	practice	28	0	1	2v5	0.150000	1	0	0	absent	1	509	80.027
CMB4	Crossover_4	1.0-rc12	20101007.131005	practice	29	1	8	orientation	0.700000	1	0	0	present	1	460	80.024
CMB4	Crossover_4	1.0-rc12	20101007.131008	practice	30	0	4	orientation	0.700000	1	0	0	absent	1	598	80.019
CMB4	Crossover_4	1.0-rc12	20101007.131012	practice	31	0	2	2v5	0.150000	1	0	0	present	0	522	80.023
CMB4	Crossover_4	1.0-rc12	20101007.131015	practice	32	1	1	orientation	0.700000	1	0	0	present	1	508	80.031
CMB4	Crossover_4	1.0-rc12	20101007.131019	practice	33	0	1	orientation	0.700000	1	0	0	absent	1	598	80.024
CMB4	Crossover_4	1.0-rc12	20101007.131022	practice	34	1	1	orientation	0.700000	1	0	0	present	1	522	80.029
CMB4	Crossover_4	1.0-rc12	20101007.131026	practice	35	1	2	orientation	0.700000	1	0	0	present	1	432	80.036
CMB4	Crossover_4	1.0-rc12	20101007.131029	practice	36	1	2	2v5	0.150000	1	0	0	present	1	543	80.036
CMB4	Crossover_4	1.0-rc12	20101007.131033	practice	37	0	4	2v5	0.150000	1	0	0	absent	1	1095	80.029
CMB4	Crossover_4	1.0-rc12	20101007.131037	practice	38	0	1	2v5	0.150000	1	0	0	absent	1	570	80.029
CMB4	Crossover_4	1.0-rc12	20101007.131040	practice	39	0	2	2v5	0.150000	1	0	0	absent	1	660	80.030
CMB4	Crossover_4	1.0-rc12	20101007.131044	practice	40	0	2	2v5	0.150000	1	0	0	absent	1	674	80.026
CMB4	Crossover_4	1.0-rc12	20101007.131048	practice	41	0	1	2v5	0.150000	1	0	0	absent	1	594	80.028
CMB4	Crossover_4	1.0-rc12	20101007.131051	practice	42	0	4	orientation	0.700000	1	0	0	absent	1	577	80.032
CMB4	Crossover_4	1.0-rc12	20101007.131055	practice	43	1	2	orientation	0.700000	1	0	0	present	1	508	80.025
CMB4	Crossover_4	1.0-rc12	20101007.131058	practice	44	0	8	2v5	0.150000	1	0	0	present	0	529	80.034
CMB4	Crossover_4	1.0-rc12	20101007.131102	practice	45	0	2	orientation	0.700000	1	0	0	absent	1	467	80.024
CMB4	Crossover_4	1.0-rc12	20101007.131105	practice	46	1	8	orientation	0.700000	1	0	0	present	1	564	80.037
CMB4	Crossover_4	1.0-rc12	20101007.131109	practice	47	0	2	orientation	0.700000	1	0	0	absent	1	549	80.033
CMB4	Crossover_4	1.0-rc12	20101007.131112	practice	48	0	8	orientation	0.700000	1	0	0	absent	1	549	80.034
CMB4	Crossover_4	1.0-rc12	20101007.131116	practice	49	1	1	orientation	0.700000	1	0	0	present	1	480	80.033
CMB4	Crossover_4	1.0-rc12	20101007.131119	practice	50	0	8	orientation	0.700000	1	0	0	absent	1	667	80.023
CMB4	Crossover_4	1.0-rc12	20101007.131132	practice	51	1	1	orientation	0.700000	1	0	0	present	1	557	80.025
CMB4	Crossover_4	1.0-rc12	20101007.131136	practice	52	1	2	2v5	0.150000	1	0	0	present	1	460	80.032
CMB4	Crossover_4	1.0-rc12	20101007.131139	practice	53	0	1	orientation	0.700000	1	0	0	absent	1	702	80.038
CMB4	Crossover_4	1.0-rc12	20101007.131143	practice	54	0	1	orientation	0.700000	1	0	0	absent	1	432	80.026
CMB4	Crossover_4	1.0-rc12	20101007.131146	practice	55	1	1	2v5	0.150000	1	0	0	present	1	405	80.034
CMB4	Crossover_4	1.0-rc12	20101007.131150	practice	56	0	8	orientation	0.700000	1	0	0	absent	1	543	80.027
CMB4	Crossover_4	1.0-rc12	20101007.131153	practice	57	1	2	orientation	0.700000	1	0	0	absent	0	598	80.039
CMB4	Crossover_4	1.0-rc12	20101007.131157	practice	58	0	2	orientation	0.700000	1	0	0	absent	1	626	80.024
CMB4	Crossover_4	1.0-rc12	20101007.131201	practice	59	0	8	orientation	0.700000	1	0	0	absent	1	591	80.038
CMB4	Crossover_4	1.0-rc12	20101007.131204	practice	60	1	1	orientation	0.700000	1	0	0	present	1	529	80.033
CMB4	Crossover_4	1.0-rc12	20101007.131208	practice	61	1	2	orientation	0.700000	1	0	0	present	1	432	80.017
CMB4	Crossover_4	1.0-rc12	20101007.131211	practice	62	0	8	orientation	0.700000	1	0	0	absent	1	874	80.025
CMB4	Crossover_4	1.0-rc12	20101007.131215	practice	63	1	2	2v5	0.150000	1	0	0	present	1	508	80.031
CMB4	Crossover_4	1.0-rc12	20101007.131218	practice	64	1	4	2v5	0.150000	1	0	0	present	1	549	80.027
CMB4	Crossover_4	1.0-rc12	20101007.131222	practice	65	0	8	2v5	0.150000	1	0	0	present	0	1040	80.027
CMB4	Crossover_4	1.0-rc12	20101007.131226	practice	66	1	4	orientation	0.700000	1	0	0	present	1	1075	80.031
CMB4	Crossover_4	1.0-rc12	20101007.131230	practice	67	0	4	orientation	0.700000	1	0	0	absent	1	529	80.026
CMB4	Crossover_4	1.0-rc12	20101007.131233	practice	68	1	1	2v5	0.150000	1	0	0	present	1	570	80.038
CMB4	Crossover_4	1.0-rc12	20101007.131237	practice	69	0	8	2v5	0.150000	1	0	0	present	0	654	80.029
CMB4	Crossover_4	1.0-rc12	20101007.131241	practice	70	1	4	orientation	0.700000	1	0	0	present	1	563	80.022
CMB4	Crossover_4	1.0-rc12	20101007.131244	practice	71	1	2	2v5	0.150000	1	0	0	present	1	550	80.033
CMB4	Crossover_4	1.0-rc12	20101007.131248	practice	72	1	2	orientation	0.700000	1	0	0	present	1	618	80.036
CMB4	Crossover_4	1.0-rc12	20101007.131251	practice	73	1	4	2v5	0.150000	1	0	0	present	1	509	80.024
CMB4	Crossover_4	1.0-rc12	20101007.131255	practice	74	1	2	orientation	0.700000	1	0	0	present	1	543	80.027
CMB4	Crossover_4	1.0-rc12	20101007.131258	practice	75	1	8	2v5	0.150000	1	0	0	present	1	798	80.027
CMB4	Crossover_4	1.0-rc12	20101007.131302	practice	76	1	1	2v5	0.150000	1	0	0	present	1	716	80.035
CMB4	Crossover_4	1.0-rc12	20101007.131306	practice	77	1	1	orientation	0.700000	1	0	0	present	1	522	80.029
CMB4	Crossover_4	1.0-rc12	20101007.131309	practice	78	0	8	2v5	0.150000	1	0	0	absent	1	1012	80.031
CMB4	Crossover_4	1.0-rc12	20101007.131313	practice	79	1	8	2v5	0.150000	1	0	0	absent	0	1620	80.034
CMB4	Crossover_4	1.0-rc12	20101007.131318	practice	80	0	2	2v5	0.150000	1	0	0	present	0	2013	80.026
CMB4	Crossover_4	1.0-rc12	20101007.131323	practice	81	1	4	2v5	0.150000	1	0	0	absent	0	1689	80.031
CMB4	Crossover_4	1.0-rc12	20101007.131327	practice	82	0	1	orientation	0.700000	1	0	0	absent	1	515	80.026
CMB4	Crossover_4	1.0-rc12	20101007.131331	practice	83	0	8	2v5	0.150000	1	0	0	absent	1	729	80.036
CMB4	Crossover_4	1.0-rc12	20101007.131335	practice	84	1	2	2v5	0.150000	1	0	0	absent	0	867	80.030
CMB4	Crossover_4	1.0-rc12	20101007.131338	practice	85	1	4	orientation	0.700000	1	0	0	present	1	529	80.024
CMB4	Crossover_4	1.0-rc12	20101007.131342	practice	86	1	8	orientation	0.700000	1	0	0	present	1	550	80.023
CMB4	Crossover_4	1.0-rc12	20101007.131345	practice	87	1	4	orientation	0.700000	1	0	0	present	1	487	80.020
CMB4	Crossover_4	1.0-rc12	20101007.131349	practice	88	1	2	2v5	0.150000	1	0	0	present	1	467	80.031
CMB4	Crossover_4	1.0-rc12	20101007.131352	practice	89	0	1	2v5	0.150000	1	0	0	absent	1	1081	80.032
CMB4	Crossover_4	1.0-rc12	20101007.131356	practice	90	0	1	2v5	0.150000	1	0	0	absent	1	515	80.026
CMB4	Crossover_4	1.0-rc12	20101007.131400	practice	91	1	4	orientation	0.700000	1	0	0	present	1	494	80.027
CMB4	Crossover_4	1.0-rc12	20101007.131403	practice	92	0	4	2v5	0.150000	1	0	0	absent	1	1088	80.027
CMB4	Crossover_4	1.0-rc12	20101007.131407	practice	93	0	2	orientation	0.700000	1	0	0	absent	1	536	80.027
CMB4	Crossover_4	1.0-rc12	20101007.131411	practice	94	0	4	orientation	0.700000	1	0	0	absent	1	522	80.028
CMB4	Crossover_4	1.0-rc12	20101007.131414	practice	95	1	8	2v5	0.150000	1	0	0	present	1	632	80.034
CMB4	Crossover_4	1.0-rc12	20101007.131418	practice	96	1	1	2v5	0.150000	1	0	0	present	1	468	80.035
CMB4	Crossover_4	1.0-rc12	20101007.131421	practice	97	0	8	orientation	0.700000	1	0	0	absent	1	632	80.037
CMB4	Crossover_4	1.0-rc12	20101007.131425	practice	98	0	8	2v5	0.150000	1	0	0	present	0	1197	80.033
CMB4	Crossover_4	1.0-rc12	20101007.131429	practice	99	0	4	orientation	0.700000	1	0	0	absent	1	549	80.023
CMB4	Crossover_4	1.0-rc12	20101007.131433	practice	100	1	4	orientation	0.700000	1	0	0	present	1	949	80.033
CMB4	Crossover_4	1.0-rc12	20101007.131437	experimental	1	1	4	2v5	0.150000	1	0	0	absent	0	777	80.033
CMB4	Crossover_4	1.0-rc12	20101007.131440	experimental	2	0	8	orientation	0.700000	1	0	0	absent	1	535	80.031
CMB4	Crossover_4	1.0-rc12	20101007.131444	experimental	3	0	1	2v5	0.150000	1	0	0	absent	1	495	80.027
CMB4	Crossover_4	1.0-rc12	20101007.131447	experimental	4	1	2	orientation	0.700000	1	0	0	present	1	529	80.029
CMB4	Crossover_4	1.0-rc12	20101007.131451	experimental	5	0	1	2v5	0.150000	1	0	0	absent	1	543	80.028
CMB4	Crossover_4	1.0-rc12	20101007.131454	experimental	6	1	8	2v5	0.150000	1	0	0	absent	0	563	80.032
CMB4	Crossover_4	1.0-rc12	20101007.131458	experimental	7	0	1	orientation	0.700000	1	0	0	absent	1	439	80.030
CMB4	Crossover_4	1.0-rc12	20101007.131501	experimental	8	0	2	orientation	0.700000	1	0	0	absent	1	425	80.036
CMB4	Crossover_4	1.0-rc12	20101007.131505	experimental	9	1	2	2v5	0.150000	1	0	0	present	1	542	80.027
CMB4	Crossover_4	1.0-rc12	20101007.131508	experimental	10	0	1	orientation	0.700000	1	0	0	absent	1	453	80.031
CMB4	Crossover_4	1.0-rc12	20101007.131512	experimental	11	1	2	orientation	0.700000	1	0	0	present	1	826	80.038
CMB4	Crossover_4	1.0-rc12	20101007.131515	experimental	12	0	2	orientation	0.700000	1	0	0	absent	1	591	80.030
CMB4	Crossover_4	1.0-rc12	20101007.131519	experimental	13	1	4	2v5	0.150000	1	0	0	present	1	453	80.029
CMB4	Crossover_4	1.0-rc12	20101007.131522	experimental	14	1	2	orientation	0.700000	1	0	0	present	1	549	80.023
CMB4	Crossover_4	1.0-rc12	20101007.131526	experimental	15	1	4	2v5	0.150000	1	0	0	present	1	529	80.019
CMB4	Crossover_4	1.0-rc12	20101007.131529	experimental	16	1	1	orientation	0.700000	1	0	0	present	1	488	80.037
CMB4	Crossover_4	1.0-rc12	20101007.131533	experimental	17	0	8	2v5	0.150000	1	0	0	absent	1	826	80.022
CMB4	Crossover_4	1.0-rc12	20101007.131537	experimental	18	0	8	orientation	0.700000	1	0	0	absent	1	536	80.022
CMB4	Crossover_4	1.0-rc12	20101007.131540	experimental	19	1	8	orientation	0.700000	1	0	0	present	1	502	80.029
CMB4	Crossover_4	1.0-rc12	20101007.131544	experimental	20	1	2	2v5	0.150000	1	0	0	present	1	564	80.032
CMB4	Crossover_4	1.0-rc12	20101007.131547	experimental	21	1	1	2v5	0.150000	1	0	0	present	1	501	80.030
CMB4	Crossover_4	1.0-rc12	20101007.131551	experimental	22	1	1	2v5	0.150000	1	0	0	present	1	398	80.020
CMB4	Crossover_4	1.0-rc12	20101007.131554	experimental	23	1	8	orientation	0.700000	1	0	0	present	1	501	80.038
CMB4	Crossover_4	1.0-rc12	20101007.131557	experimental	24	0	8	2v5	0.150000	1	0	0	absent	1	853	80.021
CMB4	Crossover_4	1.0-rc12	20101007.131601	experimental	25	0	4	orientation	0.700000	1	0	0	absent	1	859	80.031
CMB4	Crossover_4	1.0-rc12	20101007.131605	experimental	26	1	4	orientation	0.700000	1	0	0	present	1	564	80.028
CMB4	Crossover_4	1.0-rc12	20101007.131609	experimental	27	0	4	2v5	0.150000	1	0	0	absent	1	1177	80.032
CMB4	Crossover_4	1.0-rc12	20101007.131613	experimental	28	0	8	orientation	0.700000	1	0	0	absent	1	854	80.037
CMB4	Crossover_4	1.0-rc12	20101007.131617	experimental	29	0	4	2v5	0.150000	1	0	0	absent	1	687	80.028
CMB4	Crossover_4	1.0-rc12	20101007.131620	experimental	30	0	2	orientation	0.700000	1	0	0	absent	1	598	80.032
CMB4	Crossover_4	1.0-rc12	20101007.131624	experimental	31	1	2	2v5	0.150000	1	0	0	present	1	515	80.030
CMB4	Crossover_4	1.0-rc12	20101007.131627	experimental	32	0	8	orientation	0.700000	1	0	0	absent	1	549	80.032
CMB4	Crossover_4	1.0-rc12	20101007.131631	experimental	33	1	8	2v5	0.150000	1	0	0	present	1	529	80.030
CMB4	Crossover_4	1.0-rc12	20101007.131634	experimental	34	1	2	orientation	0.700000	1	0	0	present	1	474	80.040
CMB4	Crossover_4	1.0-rc12	20101007.131638	experimental	35	1	4	orientation	0.700000	1	0	0	present	1	508	80.030
CMB4	Crossover_4	1.0-rc12	20101007.131641	experimental	36	1	8	2v5	0.150000	1	0	0	absent	0	626	80.027
CMB4	Crossover_4	1.0-rc12	20101007.131645	experimental	37	1	8	orientation	0.700000	1	0	0	present	1	584	80.030
CMB4	Crossover_4	1.0-rc12	20101007.131648	experimental	38	1	2	2v5	0.150000	1	0	0	present	1	523	80.031
CMB4	Crossover_4	1.0-rc12	20101007.131652	experimental	39	0	1	orientation	0.700000	1	0	0	absent	1	515	80.031
CMB4	Crossover_4	1.0-rc12	20101007.131655	experimental	40	1	8	2v5	0.150000	1	0	0	present	1	612	80.034
CMB4	Crossover_4	1.0-rc12	20101007.131659	experimental	41	0	8	orientation	0.700000	1	0	0	absent	1	550	80.008
CMB4	Crossover_4	1.0-rc12	20101007.131703	experimental	42	1	1	orientation	0.700000	1	0	0	present	1	584	80.034
CMB4	Crossover_4	1.0-rc12	20101007.131706	experimental	43	0	2	2v5	0.150000	1	0	0	absent	1	688	80.025
CMB4	Crossover_4	1.0-rc12	20101007.131710	experimental	44	0	4	orientation	0.700000	1	0	0	absent	1	556	80.032
CMB4	Crossover_4	1.0-rc12	20101007.131713	experimental	45	0	8	orientation	0.700000	1	0	0	absent	1	549	80.038
CMB4	Crossover_4	1.0-rc12	20101007.131717	experimental	46	0	2	2v5	0.150000	1	0	0	absent	1	923	80.033
CMB4	Crossover_4	1.0-rc12	20101007.131721	experimental	47	0	4	orientation	0.700000	1	0	0	absent	1	549	80.035
CMB4	Crossover_4	1.0-rc12	20101007.131724	experimental	48	1	4	2v5	0.150000	1	0	0	absent	0	577	80.033
CMB4	Crossover_4	1.0-rc12	20101007.131728	experimental	49	1	1	2v5	0.150000	1	0	0	present	1	459	80.024
CMB4	Crossover_4	1.0-rc12	20101007.131731	experimental	50	1	1	2v5	0.150000	1	0	0	present	1	736	80.033
CMB4	Crossover_4	1.0-rc12	20101007.131811	experimental	51	0	8	orientation	0.700000	1	0	0	absent	1	446	80.025
CMB4	Crossover_4	1.0-rc12	20101007.131814	experimental	52	1	2	2v5	0.150000	1	0	0	present	1	515	80.033
CMB4	Crossover_4	1.0-rc12	20101007.131818	experimental	53	1	4	2v5	0.150000	1	0	0	absent	0	659	80.027
CMB4	Crossover_4	1.0-rc12	20101007.131822	experimental	54	0	4	2v5	0.150000	1	0	0	absent	1	742	80.027
CMB4	Crossover_4	1.0-rc12	20101007.131825	experimental	55	1	4	orientation	0.700000	1	0	0	absent	0	577	80.020
CMB4	Crossover_4	1.0-rc12	20101007.131829	experimental	56	0	4	2v5	0.150000	1	0	0	absent	1	687	80.030
CMB4	Crossover_4	1.0-rc12	20101007.131832	experimental	57	1	8	2v5	0.150000	1	0	0	present	1	494	80.027
CMB4	Crossover_4	1.0-rc12	20101007.131836	experimental	58	1	2	2v5	0.150000	1	0	0	present	1	570	80.022
CMB4	Crossover_4	1.0-rc12	20101007.131840	experimental	59	1	1	2v5	0.150000	1	0	0	present	1	432	80.025
CMB4	Crossover_4	1.0-rc12	20101007.131843	experimental	60	0	4	2v5	0.150000	1	0	0	absent	1	1184	80.035
CMB4	Crossover_4	1.0-rc12	20101007.131847	experimental	61	0	2	2v5	0.150000	1	0	0	absent	1	578	80.038
CMB4	Crossover_4	1.0-rc12	20101007.131851	experimental	62	1	4	2v5	0.150000	1	0	0	present	1	591	80.030
CMB4	Crossover_4	1.0-rc12	20101007.131854	experimental	63	1	8	2v5	0.150000	1	0	0	absent	0	577	80.037
CMB4	Crossover_4	1.0-rc12	20101007.131858	experimental	64	0	4	orientation	0.700000	1	0	0	absent	1	549	80.035
CMB4	Crossover_4	1.0-rc12	20101007.131901	experimental	65	1	4	orientation	0.700000	1	0	0	present	1	598	80.037
CMB4	Crossover_4	1.0-rc12	20101007.131905	experimental	66	0	4	orientation	0.700000	1	0	0	absent	1	563	80.026
CMB4	Crossover_4	1.0-rc12	20101007.131908	experimental	67	1	8	2v5	0.150000	1	0	0	present	1	563	80.032
CMB4	Crossover_4	1.0-rc12	20101007.131912	experimental	68	0	2	orientation	0.700000	1	0	0	absent	1	453	80.036
CMB4	Crossover_4	1.0-rc12	20101007.131915	experimental	69	1	8	2v5	0.150000	1	0	0	present	1	618	80.025
CMB4	Crossover_4	1.0-rc12	20101007.131919	experimental	70	1	1	orientation	0.700000	1	0	0	present	1	536	80.028
CMB4	Crossover_4	1.0-rc12	20101007.131923	experimental	71	0	4	2v5	0.150000	1	0	0	absent	1	1418	80.036
CMB4	Crossover_4	1.0-rc12	20101007.131927	experimental	72	1	4	2v5	0.150000	1	0	0	absent	0	714	80.020
CMB4	Crossover_4	1.0-rc12	20101007.131931	experimental	73	1	8	2v5	0.150000	1	0	0	absent	0	826	80.030
CMB4	Crossover_4	1.0-rc12	20101007.131934	experimental	74	0	2	2v5	0.150000	1	0	0	absent	1	880	80.022
CMB4	Crossover_4	1.0-rc12	20101007.131938	experimental	75	0	4	2v5	0.150000	1	0	0	absent	1	674	80.019
CMB4	Crossover_4	1.0-rc12	20101007.131942	experimental	76	1	4	orientation	0.700000	1	0	0	present	1	556	80.033
CMB4	Crossover_4	1.0-rc12	20101007.131945	experimental	77	1	2	2v5	0.150000	1	0	0	present	1	467	80.030
CMB4	Crossover_4	1.0-rc12	20101007.131949	experimental	78	1	4	2v5	0.150000	1	0	0	absent	0	716	80.027
CMB4	Crossover_4	1.0-rc12	20101007.131953	experimental	79	1	1	2v5	0.150000	1	0	0	present	1	452	80.026
CMB4	Crossover_4	1.0-rc12	20101007.131956	experimental	80	1	2	orientation	0.700000	1	0	0	present	1	556	80.032
CMB4	Crossover_4	1.0-rc12	20101007.132000	experimental	81	1	2	2v5	0.150000	1	0	0	present	1	543	80.036
CMB4	Crossover_4	1.0-rc12	20101007.132003	experimental	82	0	1	2v5	0.150000	1	0	0	absent	1	481	80.037
CMB4	Crossover_4	1.0-rc12	20101007.132006	experimental	83	1	8	2v5	0.150000	1	0	0	present	1	473	80.018
CMB4	Crossover_4	1.0-rc12	20101007.132010	experimental	84	0	4	2v5	0.150000	1	0	0	absent	1	1032	80.032
CMB4	Crossover_4	1.0-rc12	20101007.132014	experimental	85	1	4	orientation	0.700000	1	0	0	absent	0	949	80.026
CMB4	Crossover_4	1.0-rc12	20101007.132018	experimental	86	1	1	orientation	0.700000	1	0	0	present	1	481	80.029
CMB4	Crossover_4	1.0-rc12	20101007.132021	experimental	87	0	1	orientation	0.700000	1	0	0	absent	1	750	80.022
CMB4	Crossover_4	1.0-rc12	20101007.132025	experimental	88	1	4	orientation	0.700000	1	0	0	present	1	597	80.029
CMB4	Crossover_4	1.0-rc12	20101007.132029	experimental	89	1	2	orientation	0.700000	1	0	0	present	1	446	80.022
CMB4	Crossover_4	1.0-rc12	20101007.132032	experimental	90	1	4	2v5	0.150000	1	0	0	present	1	688	80.032
CMB4	Crossover_4	1.0-rc12	20101007.132036	experimental	91	0	2	2v5	0.150000	1	0	0	absent	1	1653	80.035
CMB4	Crossover_4	1.0-rc12	20101007.132040	experimental	92	1	8	orientation	0.700000	1	0	0	present	1	625	80.030
CMB4	Crossover_4	1.0-rc12	20101007.132044	experimental	93	1	2	orientation	0.700000	1	0	0	present	1	453	80.029
CMB4	Crossover_4	1.0-rc12	20101007.132047	experimental	94	0	1	orientation	0.700000	1	0	0	absent	1	881	80.030
CMB4	Crossover_4	1.0-rc12	20101007.132051	experimental	95	1	4	2v5	0.150000	1	0	0	present	1	639	80.027
CMB4	Crossover_4	1.0-rc12	20101007.132055	experimental	96	1	2	2v5	0.150000	1	0	0	present	1	549	80.030
CMB4	Crossover_4	1.0-rc12	20101007.132058	experimental	97	0	1	orientation	0.700000	1	0	0	absent	1	618	80.034
CMB4	Crossover_4	1.0-rc12	20101007.132102	experimental	98	1	8	orientation	0.700000	1	0	0	present	1	605	80.021
CMB4	Crossover_4	1.0-rc12	20101007.132105	experimental	99	1	4	orientation	0.700000	1	0	0	present	1	432	80.028
CMB4	Crossover_4	1.0-rc12	20101007.132109	experimental	100	0	8	2v5	0.150000	1	0	0	absent	1	695	80.035
CMB4	Crossover_4	1.0-rc12	20101007.132204	experimental	101	1	2	2v5	0.150000	1	0	0	present	1	542	80.028
CMB4	Crossover_4	1.0-rc12	20101007.132207	experimental	102	1	2	orientation	0.700000	1	0	0	present	1	488	80.033
CMB4	Crossover_4	1.0-rc12	20101007.132211	experimental	103	0	8	2v5	0.150000	1	0	0	absent	1	812	80.029
CMB4	Crossover_4	1.0-rc12	20101007.132214	experimental	104	1	1	2v5	0.150000	1	0	0	present	1	439	80.030
CMB4	Crossover_4	1.0-rc12	20101007.132218	experimental	105	1	8	2v5	0.150000	1	0	0	absent	0	1385	80.034
CMB4	Crossover_4	1.0-rc12	20101007.132222	experimental	106	0	8	orientation	0.700000	1	0	0	absent	1	563	80.033
CMB4	Crossover_4	1.0-rc12	20101007.132226	experimental	107	0	4	orientation	0.700000	1	0	0	present	0	1226	80.031
CMB4	Crossover_4	1.0-rc12	20101007.132230	experimental	108	1	8	orientation	0.700000	1	0	0	present	1	1005	80.032
CMB4	Crossover_4	1.0-rc12	20101007.132234	experimental	109	1	4	2v5	0.150000	1	0	0	present	1	998	80.027
CMB4	Crossover_4	1.0-rc12	20101007.132238	experimental	110	1	4	2v5	0.150000	1	0	0	present	1	508	80.031
CMB4	Crossover_4	1.0-rc12	20101007.132241	experimental	111	1	8	2v5	0.150000	1	0	0	present	1	812	80.035
CMB4	Crossover_4	1.0-rc12	20101007.132245	experimental	112	1	1	2v5	0.150000	1	0	0	present	1	391	80.030
CMB4	Crossover_4	1.0-rc12	20101007.132249	experimental	113	0	8	orientation	0.700000	1	0	0	present	0	739	80.024
CMB4	Crossover_4	1.0-rc12	20101007.132252	experimental	114	1	2	2v5	0.150000	1	0	0	present	1	667	80.027
CMB4	Crossover_4	1.0-rc12	20101007.132256	experimental	115	1	2	orientation	0.700000	1	0	0	present	1	901	80.024
CMB4	Crossover_4	1.0-rc12	20101007.132300	experimental	116	0	1	2v5	0.150000	1	0	0	absent	1	771	80.022
CMB4	Crossover_4	1.0-rc12	20101007.132303	experimental	117	0	4	2v5	0.150000	1	0	0	absent	1	819	80.035
CMB4	Crossover_4	1.0-rc12	20101007.132307	experimental	118	1	8	orientation	0.700000	1	0	0	absent	0	1005	80.029
CMB4	Crossover_4	1.0-rc12	20101007.132311	experimental	119	1	8	orientation	0.700000	1	0	0	present	1	529	80.024
CMB4	Crossover_4	1.0-rc12	20101007.132315	experimental	120	1	8	2v5	0.150000	1	0	0	present	1	549	80.032
CMB4	Crossover_4	1.0-rc12	20101007.132318	experimental	121	0	4	2v5	0.150000	1	0	0	absent	1	777	80.038
CMB4	Crossover_4	1.0-rc12	20101007.132322	experimental	122	1	2	orientation	0.700000	1	0	0	present	1	556	80.030
CMB4	Crossover_4	1.0-rc12	20101007.132326	experimental	123	1	2	2v5	0.150000	1	0	0	present	1	508	80.025
CMB4	Crossover_4	1.0-rc12	20101007.132329	experimental	124	0	8	2v5	0.150000	1	0	0	absent	1	833	80.021
CMB4	Crossover_4	1.0-rc12	20101007.132333	experimental	125	1	8	orientation	0.700000	1	0	0	present	1	522	80.040
CMB4	Crossover_4	1.0-rc12	20101007.132336	experimental	126	0	2	2v5	0.150000	1	0	0	absent	1	674	80.027
CMB4	Crossover_4	1.0-rc12	20101007.132340	experimental	127	1	8	orientation	0.700000	1	0	0	present	1	508	80.029
CMB4	Crossover_4	1.0-rc12	20101007.132344	experimental	128	0	4	2v5	0.150000	1	0	0	present	0	846	80.029
CMB4	Crossover_4	1.0-rc12	20101007.132347	experimental	129	0	1	2v5	0.150000	1	0	0	absent	1	591	80.026
CMB4	Crossover_4	1.0-rc12	20101007.132351	experimental	130	1	1	orientation	0.700000	1	0	0	present	1	501	80.024
CMB4	Crossover_4	1.0-rc12	20101007.132354	experimental	131	0	4	orientation	0.700000	1	0	0	absent	1	522	80.032
CMB4	Crossover_4	1.0-rc12	20101007.132358	experimental	132	1	1	orientation	0.700000	1	0	0	present	1	543	80.030
CMB4	Crossover_4	1.0-rc12	20101007.132401	experimental	133	1	1	2v5	0.150000	1	0	0	present	1	488	80.033
CMB4	Crossover_4	1.0-rc12	20101007.132405	experimental	134	1	8	2v5	0.150000	1	0	0	present	1	839	80.032
CMB4	Crossover_4	1.0-rc12	20101007.132409	experimental	135	0	4	orientation	0.700000	1	0	0	absent	1	735	80.027
CMB4	Crossover_4	1.0-rc12	20101007.132412	experimental	136	1	2	2v5	0.150000	1	0	0	present	1	494	80.025
CMB4	Crossover_4	1.0-rc12	20101007.132416	experimental	137	0	2	orientation	0.700000	1	0	0	absent	1	577	80.023
CMB4	Crossover_4	1.0-rc12	20101007.132420	experimental	138	0	1	orientation	0.700000	1	0	0	present	0	750	80.022
CMB4	Crossover_4	1.0-rc12	20101007.132423	experimental	139	0	1	2v5	0.150000	1	0	0	absent	1	639	80.031
CMB4	Crossover_4	1.0-rc12	20101007.132427	experimental	140	1	4	2v5	0.150000	1	0	0	present	1	1645	80.029
CMB4	Crossover_4	1.0-rc12	20101007.132431	experimental	141	1	8	2v5	0.150000	1	0	0	present	1	549	80.028
CMB4	Crossover_4	1.0-rc12	20101007.132435	experimental	142	1	1	orientation	0.700000	1	0	0	present	1	522	80.032
CMB4	Crossover_4	1.0-rc12	20101007.132438	experimental	143	1	4	orientation	0.700000	1	0	0	present	1	515	80.040
CMB4	Crossover_4	1.0-rc12	20101007.132442	experimental	144	0	8	orientation	0.700000	1	0	0	absent	1	494	80.027
CMB4	Crossover_4	1.0-rc12	20101007.132445	experimental	145	1	8	2v5	0.150000	1	0	0	present	1	488	80.033
CMB4	Crossover_4	1.0-rc12	20101007.132449	experimental	146	0	2	2v5	0.150000	1	0	0	absent	1	591	80.025
CMB4	Crossover_4	1.0-rc12	20101007.132452	experimental	147	0	1	orientation	0.700000	1	0	0	absent	1	563	80.032
CMB4	Crossover_4	1.0-rc12	20101007.132456	experimental	148	1	2	2v5	0.150000	1	0	0	present	1	591	80.034
CMB4	Crossover_4	1.0-rc12	20101007.132500	experimental	149	0	1	2v5	0.150000	1	0	0	absent	1	508	80.035
CMB4	Crossover_4	1.0-rc12	20101007.132503	experimental	150	0	8	orientation	0.700000	1	0	0	present	0	1253	80.025
CMB4	Crossover_4	1.0-rc12	20101007.132654	experimental	151	0	8	orientation	0.700000	1	0	0	present	0	909	80.024
CMB4	Crossover_4	1.0-rc12	20101007.132658	experimental	152	0	4	orientation	0.700000	1	0	0	absent	1	632	80.020
CMB4	Crossover_4	1.0-rc12	20101007.132701	experimental	153	0	8	2v5	0.150000	1	0	0	absent	1	743	80.031
CMB4	Crossover_4	1.0-rc12	20101007.132705	experimental	154	1	2	2v5	0.150000	1	0	0	present	1	660	80.034
CMB4	Crossover_4	1.0-rc12	20101007.132709	experimental	155	1	4	orientation	0.700000	1	0	0	present	1	563	80.024
CMB4	Crossover_4	1.0-rc12	20101007.132712	experimental	156	1	1	orientation	0.700000	1	0	0	present	1	460	80.020
CMB4	Crossover_4	1.0-rc12	20101007.132716	experimental	157	0	4	2v5	0.150000	1	0	0	absent	1	604	80.024
CMB4	Crossover_4	1.0-rc12	20101007.132719	experimental	158	1	4	orientation	0.700000	1	0	0	present	1	453	80.026
CMB4	Crossover_4	1.0-rc12	20101007.132723	experimental	159	1	2	orientation	0.700000	1	0	0	present	1	446	80.032
CMB4	Crossover_4	1.0-rc12	20101007.132726	experimental	160	0	4	orientation	0.700000	1	0	0	absent	1	639	80.030
CMB4	Crossover_4	1.0-rc12	20101007.132730	experimental	161	1	2	2v5	0.150000	1	0	0	present	1	529	80.032
CMB4	Crossover_4	1.0-rc12	20101007.132733	experimental	162	0	1	2v5	0.150000	1	0	0	absent	1	598	80.024
CMB4	Crossover_4	1.0-rc12	20101007.132737	experimental	163	0	2	2v5	0.150000	1	0	0	present	0	798	80.020
CMB4	Crossover_4	1.0-rc12	20101007.132741	experimental	164	0	8	2v5	0.150000	1	0	0	absent	1	798	80.034
CMB4	Crossover_4	1.0-rc12	20101007.132744	experimental	165	1	8	orientation	0.700000	1	0	0	present	1	584	80.027
CMB4	Crossover_4	1.0-rc12	20101007.132748	experimental	166	0	1	2v5	0.150000	1	0	0	absent	1	639	80.027
CMB4	Crossover_4	1.0-rc12	20101007.132751	experimental	167	1	4	2v5	0.150000	1	0	0	present	1	550	80.029
CMB4	Crossover_4	1.0-rc12	20101007.132755	experimental	168	1	4	orientation	0.700000	1	0	0	present	1	563	80.035
CMB4	Crossover_4	1.0-rc12	20101007.132759	experimental	169	0	2	orientation	0.700000	1	0	0	absent	1	556	80.028
CMB4	Crossover_4	1.0-rc12	20101007.132802	experimental	170	1	4	2v5	0.150000	1	0	0	absent	0	694	80.038
CMB4	Crossover_4	1.0-rc12	20101007.132806	experimental	171	1	1	orientation	0.700000	1	0	0	present	1	535	80.032
CMB4	Crossover_4	1.0-rc12	20101007.132809	experimental	172	0	4	orientation	0.700000	1	0	0	absent	1	556	80.032
CMB4	Crossover_4	1.0-rc12	20101007.132813	experimental	173	1	2	orientation	0.700000	1	0	0	absent	0	584	80.034
CMB4	Crossover_4	1.0-rc12	20101007.132816	experimental	174	1	1	2v5	0.150000	1	0	0	present	1	439	80.022
CMB4	Crossover_4	1.0-rc12	20101007.132820	experimental	175	1	4	2v5	0.150000	1	0	0	absent	0	639	80.027
CMB4	Crossover_4	1.0-rc12	20101007.132823	experimental	176	0	8	orientation	0.700000	1	0	0	absent	1	659	80.024
CMB4	Crossover_4	1.0-rc12	20101007.132827	experimental	177	1	8	2v5	0.150000	1	0	0	present	1	515	80.021
CMB4	Crossover_4	1.0-rc12	20101007.132830	experimental	178	1	8	2v5	0.150000	1	0	0	present	1	501	80.031
CMB4	Crossover_4	1.0-rc12	20101007.132834	experimental	179	1	8	2v5	0.150000	1	0	0	present	1	501	80.030
CMB4	Crossover_4	1.0-rc12	20101007.132837	experimental	180	0	1	orientation	0.700000	1	0	0	absent	1	563	80.039
CMB4	Crossover_4	1.0-rc12	20101007.132841	experimental	181	0	2	orientation	0.700000	1	0	0	absent	1	466	80.029
CMB4	Crossover_4	1.0-rc12	20101007.132844	experimental	182	1	2	2v5	0.150000	1	0	0	present	1	467	80.033
CMB4	Crossover_4	1.0-rc12	20101007.132848	experimental	183	1	4	orientation	0.700000	1	0	0	absent	0	529	80.028
CMB4	Crossover_4	1.0-rc12	20101007.132851	experimental	184	0	8	2v5	0.150000	1	0	0	absent	1	687	80.029
CMB4	Crossover_4	1.0-rc12	20101007.132855	experimental	185	1	4	2v5	0.150000	1	0	0	present	1	522	80.033
CMB4	Crossover_4	1.0-rc12	20101007.132858	experimental	186	0	8	2v5	0.150000	1	0	0	absent	1	557	80.029
CMB4	Crossover_4	1.0-rc12	20101007.132902	experimental	187	0	2	orientation	0.700000	1	0	0	absent	1	453	80.023
CMB4	Crossover_4	1.0-rc12	20101007.132905	experimental	188	0	2	orientation	0.700000	1	0	0	absent	1	515	80.032
CMB4	Crossover_4	1.0-rc12	20101007.132909	experimental	189	1	8	orientation	0.700000	1	0	0	present	1	936	80.033
CMB4	Crossover_4	1.0-rc12	20101007.132913	experimental	190	0	8	2v5	0.150000	1	0	0	absent	1	785	80.032
CMB4	Crossover_4	1.0-rc12	20101007.132917	experimental	191	0	2	orientation	0.700000	1	0	0	absent	1	612	80.034
CMB4	Crossover_4	1.0-rc12	20101007.132920	experimental	192	0	4	orientation	0.700000	1	0	0	absent	1	550	80.029
CMB4	Crossover_4	1.0-rc12	20101007.132924	experimental	193	0	8	2v5	0.150000	1	0	0	absent	1	1329	80.021
CMB4	Crossover_4	1.0-rc12	20101007.132928	experimental	194	1	2	2v5	0.150000	1	0	0	present	1	639	80.032
CMB4	Crossover_4	1.0-rc12	20101007.132932	experimental	195	0	2	orientation	0.700000	1	0	0	absent	1	467	80.028
CMB4	Crossover_4	1.0-rc12	20101007.132935	experimental	196	0	2	2v5	0.150000	1	0	0	absent	1	708	80.028
CMB4	Crossover_4	1.0-rc12	20101007.132939	experimental	197	0	2	orientation	0.700000	1	0	0	absent	1	514	80.026
CMB4	Crossover_4	1.0-rc12	20101007.132942	experimental	198	1	8	orientation	0.700000	1	0	0	present	1	543	80.025
CMB4	Crossover_4	1.0-rc12	20101007.132946	experimental	199	1	1	orientation	0.700000	1	0	0	present	1	584	80.031
CMB4	Crossover_4	1.0-rc12	20101007.132949	experimental	200	0	4	orientation	0.700000	1	0	0	absent	1	632	80.029
CMB4	Crossover_4	1.0-rc12	20101007.132958	experimental	201	0	1	orientation	0.700000	1	0	0	absent	1	570	80.038
CMB4	Crossover_4	1.0-rc12	20101007.133002	experimental	202	0	2	2v5	0.150000	1	0	0	present	0	1074	80.027
CMB4	Crossover_4	1.0-rc12	20101007.133006	experimental	203	0	1	orientation	0.700000	1	0	0	absent	1	543	80.020
CMB4	Crossover_4	1.0-rc12	20101007.133009	experimental	204	1	2	orientation	0.700000	1	0	0	present	1	515	80.023
CMB4	Crossover_4	1.0-rc12	20101007.133013	experimental	205	1	2	orientation	0.700000	1	0	0	present	1	453	80.027
CMB4	Crossover_4	1.0-rc12	20101007.133016	experimental	206	0	2	orientation	0.700000	1	0	0	absent	1	701	80.032
CMB4	Crossover_4	1.0-rc12	20101007.133020	experimental	207	1	1	2v5	0.150000	1	0	0	present	1	490	80.023
CMB4	Crossover_4	1.0-rc12	20101007.133023	experimental	208	0	1	2v5	0.150000	1	0	0	absent	1	508	80.028
CMB4	Crossover_4	1.0-rc12	20101007.133027	experimental	209	1	1	2v5	0.150000	1	0	0	present	1	529	80.036
CMB4	Crossover_4	1.0-rc12	20101007.133030	experimental	210	1	4	orientation	0.700000	1	0	0	present	1	550	80.028
CMB4	Crossover_4	1.0-rc12	20101007.133034	experimental	211	1	4	orientation	0.700000	1	0	0	present	1	619	80.024
CMB4	Crossover_4	1.0-rc12	20101007.133037	experimental	212	0	2	orientation	0.700000	1	0	0	absent	1	529	80.033
CMB4	Crossover_4	1.0-rc12	20101007.133041	experimental	213	0	4	orientation	0.700000	1	0	0	present	0	481	80.037
CMB4	Crossover_4	1.0-rc12	20101007.133044	experimental	214	0	8	2v5	0.150000	1	0	0	present	0	632	80.037
CMB4	Crossover_4	1.0-rc12	20101007.133048	experimental	215	1	2	orientation	0.700000	1	0	0	absent	0	763	80.032
CMB4	Crossover_4	1.0-rc12	20101007.133052	experimental	216	0	8	2v5	0.150000	1	0	0	absent	1	708	80.029
CMB4	Crossover_4	1.0-rc12	20101007.133055	experimental	217	0	1	orientation	0.700000	1	0	0	absent	1	473	80.038
CMB4	Crossover_4	1.0-rc12	20101007.133059	experimental	218	0	8	orientation	0.700000	1	0	0	absent	1	687	80.030
CMB4	Crossover_4	1.0-rc12	20101007.133102	experimental	219	0	4	orientation	0.700000	1	0	0	present	0	1226	80.026
CMB4	Crossover_4	1.0-rc12	20101007.133107	experimental	220	0	8	orientation	0.700000	1	0	0	absent	1	646	80.032
CMB4	Crossover_4	1.0-rc12	20101007.133110	experimental	221	0	4	2v5	0.150000	1	0	0	present	0	1778	80.020
CMB4	Crossover_4	1.0-rc12	20101007.133115	experimental	222	0	8	orientation	0.700000	1	0	0	present	0	736	80.039
CMB4	Crossover_4	1.0-rc12	20101007.133119	experimental	223	0	1	2v5	0.150000	1	0	0	absent	1	570	80.033
CMB4	Crossover_4	1.0-rc12	20101007.133122	experimental	224	0	2	orientation	0.700000	1	0	0	absent	1	584	80.033
CMB4	Crossover_4	1.0-rc12	20101007.133126	experimental	225	1	1	orientation	0.700000	1	0	0	present	1	508	80.028
CMB4	Crossover_4	1.0-rc12	20101007.133129	experimental	226	1	1	2v5	0.150000	1	0	0	present	1	604	80.025
CMB4	Crossover_4	1.0-rc12	20101007.133133	experimental	227	1	2	orientation	0.700000	1	0	0	present	1	549	80.028
CMB4	Crossover_4	1.0-rc12	20101007.133136	experimental	228	1	4	orientation	0.700000	1	0	0	present	1	474	80.030
CMB4	Crossover_4	1.0-rc12	20101007.133140	experimental	229	0	1	orientation	0.700000	1	0	0	absent	1	652	80.023
CMB4	Crossover_4	1.0-rc12	20101007.133143	experimental	230	0	8	orientation	0.700000	1	0	0	absent	1	702	80.027
CMB4	Crossover_4	1.0-rc12	20101007.133147	experimental	231	0	8	2v5	0.150000	1	0	0	absent	1	915	80.026
CMB4	Crossover_4	1.0-rc12	20101007.133151	experimental	232	0	4	2v5	0.150000	1	0	0	absent	1	1405	80.033
CMB4	Crossover_4	1.0-rc12	20101007.133155	experimental	233	1	1	2v5	0.150000	1	0	0	present	1	494	80.029
CMB4	Crossover_4	1.0-rc12	20101007.133159	experimental	234	1	1	orientation	0.700000	1	0	0	present	1	570	80.024
CMB4	Crossover_4	1.0-rc12	20101007.133202	experimental	235	0	4	2v5	0.150000	1	0	0	absent	1	619	80.031
CMB4	Crossover_4	1.0-rc12	20101007.133206	experimental	236	1	8	orientation	0.700000	1	0	0	present	1	584	80.031
CMB4	Crossover_4	1.0-rc12	20101007.133209	experimental	237	0	4	2v5	0.150000	1	0	0	absent	1	612	80.023
CMB4	Crossover_4	1.0-rc12	20101007.133213	experimental	238	1	1	orientation	0.700000	1	0	0	present	1	536	80.026
CMB4	Crossover_4	1.0-rc12	20101007.133216	experimental	239	0	1	2v5	0.150000	1	0	0	absent	1	494	80.035
CMB4	Crossover_4	1.0-rc12	20101007.133220	experimental	240	1	1	orientation	0.700000	1	0	0	present	1	481	80.031
CMB4	Crossover_4	1.0-rc12	20101007.133223	experimental	241	1	4	2v5	0.150000	1	0	0	present	1	522	80.028
CMB4	Crossover_4	1.0-rc12	20101007.133227	experimental	242	0	2	2v5	0.150000	1	0	0	absent	1	804	80.028
CMB4	Crossover_4	1.0-rc12	20101007.133231	experimental	243	1	1	orientation	0.700000	1	0	0	present	1	501	80.028
CMB4	Crossover_4	1.0-rc12	20101007.133234	experimental	244	1	8	2v5	0.150000	1	0	0	absent	0	667	80.027
CMB4	Crossover_4	1.0-rc12	20101007.133238	experimental	245	1	1	orientation	0.700000	1	0	0	present	1	522	80.028
CMB4	Crossover_4	1.0-rc12	20101007.133241	experimental	246	0	4	orientation	0.700000	1	0	0	absent	1	653	80.035
CMB4	Crossover_4	1.0-rc12	20101007.133245	experimental	247	1	8	orientation	0.700000	1	0	0	absent	0	653	80.036
CMB4	Crossover_4	1.0-rc12	20101007.133248	experimental	248	1	2	2v5	0.150000	1	0	0	present	1	625	80.028
CMB4	Crossover_4	1.0-rc12	20101007.133252	experimental	249	1	8	2v5	0.150000	1	0	0	present	1	853	80.029
CMB4	Crossover_4	1.0-rc12	20101007.133256	experimental	250	1	1	2v5	0.150000	1	0	0	present	1	418	80.032
CMB4	Crossover_4	1.0-rc12	20101007.133304	experimental	251	1	1	2v5	0.150000	1	0	0	absent	0	467	80.035
CMB4	Crossover_4	1.0-rc12	20101007.133307	experimental	252	1	4	orientation	0.700000	1	0	0	present	1	543	80.028
CMB4	Crossover_4	1.0-rc12	20101007.133311	experimental	253	1	1	orientation	0.700000	1	0	0	present	1	529	80.030
CMB4	Crossover_4	1.0-rc12	20101007.133314	experimental	254	0	8	2v5	0.150000	1	0	0	present	0	522	80.021
CMB4	Crossover_4	1.0-rc12	20101007.133318	experimental	255	0	2	2v5	0.150000	1	0	0	absent	1	681	80.039
CMB4	Crossover_4	1.0-rc12	20101007.133321	experimental	256	0	4	orientation	0.700000	1	0	0	absent	1	1261	80.032
CMB4	Crossover_4	1.0-rc12	20101007.133326	experimental	257	1	8	2v5	0.150000	1	0	0	present	1	529	80.032
CMB4	Crossover_4	1.0-rc12	20101007.133329	experimental	258	0	2	orientation	0.700000	1	0	0	absent	1	577	80.033
CMB4	Crossover_4	1.0-rc12	20101007.133333	experimental	259	0	4	2v5	0.150000	1	0	0	present	0	653	80.035
CMB4	Crossover_4	1.0-rc12	20101007.133336	experimental	260	0	2	2v5	0.150000	1	0	0	absent	1	529	80.025
CMB4	Crossover_4	1.0-rc12	20101007.133340	experimental	261	0	2	2v5	0.150000	1	0	0	absent	1	998	80.032
CMB4	Crossover_4	1.0-rc12	20101007.133344	experimental	262	0	2	2v5	0.150000	1	0	0	absent	1	750	80.034
CMB4	Crossover_4	1.0-rc12	20101007.133347	experimental	263	1	4	2v5	0.150000	1	0	0	present	1	584	80.029
CMB4	Crossover_4	1.0-rc12	20101007.133351	experimental	264	0	1	orientation	0.700000	1	0	0	absent	1	487	80.025
CMB4	Crossover_4	1.0-rc12	20101007.133354	experimental	265	0	1	orientation	0.700000	1	0	0	absent	1	473	80.031
CMB4	Crossover_4	1.0-rc12	20101007.133358	experimental	266	1	1	orientation	0.700000	1	0	0	present	1	563	80.035
CMB4	Crossover_4	1.0-rc12	20101007.133401	experimental	267	0	4	orientation	0.700000	1	0	0	absent	1	543	80.027
CMB4	Crossover_4	1.0-rc12	20101007.133405	experimental	268	0	1	orientation	0.700000	1	0	0	absent	1	501	80.039
CMB4	Crossover_4	1.0-rc12	20101007.133408	experimental	269	0	8	2v5	0.150000	1	0	0	absent	1	825	80.029
CMB4	Crossover_4	1.0-rc12	20101007.133412	experimental	270	1	4	2v5	0.150000	1	0	0	absent	0	715	80.031
CMB4	Crossover_4	1.0-rc12	20101007.133416	experimental	271	0	4	2v5	0.150000	1	0	0	absent	1	688	80.026
CMB4	Crossover_4	1.0-rc12	20101007.133419	experimental	272	0	4	2v5	0.150000	1	0	0	absent	1	570	80.028
CMB4	Crossover_4	1.0-rc12	20101007.133423	experimental	273	1	1	2v5	0.150000	1	0	0	present	1	487	80.029
CMB4	Crossover_4	1.0-rc12	20101007.133426	experimental	274	1	1	2v5	0.150000	1	0	0	present	1	494	80.020
CMB4	Crossover_4	1.0-rc12	20101007.133430	experimental	275	0	1	2v5	0.150000	1	0	0	absent	1	535	80.032
CMB4	Crossover_4	1.0-rc12	20101007.133433	experimental	276	1	1	orientation	0.700000	1	0	0	present	1	508	80.028
CMB4	Crossover_4	1.0-rc12	20101007.133437	experimental	277	0	8	2v5	0.150000	1	0	0	absent	1	1150	80.022
CMB4	Crossover_4	1.0-rc12	20101007.133441	experimental	278	0	1	2v5	0.150000	1	0	0	absent	1	494	80.030
CMB4	Crossover_4	1.0-rc12	20101007.133444	experimental	279	0	2	orientation	0.700000	1	0	0	absent	1	529	80.032
CMB4	Crossover_4	1.0-rc12	20101007.133448	experimental	280	0	8	2v5	0.150000	1	0	0	absent	1	866	80.040
CMB4	Crossover_4	1.0-rc12	20101007.133452	experimental	281	0	2	orientation	0.700000	1	0	0	absent	1	481	80.031
CMB4	Crossover_4	1.0-rc12	20101007.133455	experimental	282	1	2	orientation	0.700000	1	0	0	absent	0	707	80.023
CMB4	Crossover_4	1.0-rc12	20101007.133459	experimental	283	1	4	orientation	0.700000	1	0	0	present	1	666	80.031
CMB4	Crossover_4	1.0-rc12	20101007.133503	experimental	284	0	2	2v5	0.150000	1	0	0	present	0	791	80.029
CMB4	Crossover_4	1.0-rc12	20101007.133506	experimental	285	0	8	2v5	0.150000	1	0	0	absent	1	535	80.030
CMB4	Crossover_4	1.0-rc12	20101007.133510	experimental	286	0	1	2v5	0.150000	1	0	0	absent	1	570	80.037
CMB4	Crossover_4	1.0-rc12	20101007.133513	experimental	287	1	4	orientation	0.700000	1	0	0	present	1	529	80.027
CMB4	Crossover_4	1.0-rc12	20101007.133517	experimental	288	1	2	orientation	0.700000	1	0	0	present	1	508	80.020
CMB4	Crossover_4	1.0-rc12	20101007.133520	experimental	289	0	1	orientation	0.700000	1	0	0	absent	1	563	80.031
CMB4	Crossover_4	1.0-rc12	20101007.133524	experimental	290	1	2	orientation	0.700000	1	0	0	present	1	564	80.024
CMB4	Crossover_4	1.0-rc12	20101007.133528	experimental	291	0	1	2v5	0.150000	1	0	0	absent	1	535	80.029
CMB4	Crossover_4	1.0-rc12	20101007.133531	experimental	292	0	2	orientation	0.700000	1	0	0	absent	1	481	80.026
CMB4	Crossover_4	1.0-rc12	20101007.133535	experimental	293	1	1	orientation	0.700000	1	0	0	present	1	501	80.025
CMB4	Crossover_4	1.0-rc12	20101007.133538	experimental	294	0	2	2v5	0.150000	1	0	0	present	0	1170	80.035
CMB4	Crossover_4	1.0-rc12	20101007.133542	experimental	295	1	1	orientation	0.700000	1	0	0	present	1	509	80.034
CMB4	Crossover_4	1.0-rc12	20101007.133546	experimental	296	1	4	orientation	0.700000	1	0	0	present	1	550	80.037
CMB4	Crossover_4	1.0-rc12	20101007.133549	experimental	297	1	4	2v5	0.150000	1	0	0	present	1	591	80.035
CMB4	Crossover_4	1.0-rc12	20101007.133553	experimental	298	0	2	orientation	0.700000	1	0	0	present	0	618	80.031
CMB4	Crossover_4	1.0-rc12	20101007.133556	experimental	299	0	8	2v5	0.150000	1	0	0	present	0	1280	80.029
CMB4	Crossover_4	1.0-rc12	20101007.133601	experimental	300	0	1	orientation	0.700000	1	0	0	absent	1	667	80.022
CMB4	Crossover_4	1.0-rc12	20101007.133716	experimental	301	1	8	orientation	0.700000	1	0	0	present	1	522	80.028
CMB4	Crossover_4	1.0-rc12	20101007.133719	experimental	302	1	1	orientation	0.700000	1	0	0	present	1	439	80.029
CMB4	Crossover_4	1.0-rc12	20101007.133723	experimental	303	1	4	2v5	0.150000	1	0	0	absent	0	942	80.033
CMB4	Crossover_4	1.0-rc12	20101007.133727	experimental	304	0	1	2v5	0.150000	1	0	0	absent	1	515	80.039
CMB4	Crossover_4	1.0-rc12	20101007.133730	experimental	305	1	8	orientation	0.700000	1	0	0	present	1	515	80.035
CMB4	Crossover_4	1.0-rc12	20101007.133734	experimental	306	0	2	2v5	0.150000	1	0	0	absent	1	521	80.033
CMB4	Crossover_4	1.0-rc12	20101007.133737	experimental	307	1	8	orientation	0.700000	1	0	0	present	1	597	80.031
CMB4	Crossover_4	1.0-rc12	20101007.133741	experimental	308	1	8	orientation	0.700000	1	0	0	present	1	508	80.023
CMB4	Crossover_4	1.0-rc12	20101007.133744	experimental	309	1	8	2v5	0.150000	1	0	0	absent	0	611	80.027
CMB4	Crossover_4	1.0-rc12	20101007.133748	experimental	310	0	4	orientation	0.700000	1	0	0	absent	1	611	80.027
CMB4	Crossover_4	1.0-rc12	20101007.133751	experimental	311	0	1	2v5	0.150000	1	0	0	absent	1	867	80.029
CMB4	Crossover_4	1.0-rc12	20101007.133755	experimental	312	1	8	orientation	0.700000	1	0	0	present	1	515	80.021
CMB4	Crossover_4	1.0-rc12	20101007.133759	experimental	313	0	2	2v5	0.150000	1	0	0	absent	1	522	80.028
CMB4	Crossover_4	1.0-rc12	20101007.133802	experimental	314	0	4	orientation	0.700000	1	0	0	absent	1	605	80.031
CMB4	Crossover_4	1.0-rc12	20101007.133806	experimental	315	0	1	2v5	0.150000	1	0	0	absent	1	439	80.030
CMB4	Crossover_4	1.0-rc12	20101007.133809	experimental	316	0	1	2v5	0.150000	1	0	0	absent	1	487	80.033
CMB4	Crossover_4	1.0-rc12	20101007.133813	experimental	317	1	8	orientation	0.700000	1	0	0	present	1	515	80.035
CMB4	Crossover_4	1.0-rc12	20101007.133816	experimental	318	1	4	2v5	0.150000	1	0	0	present	1	736	80.033
CMB4	Crossover_4	1.0-rc12	20101007.133820	experimental	319	0	1	orientation	0.700000	1	0	0	absent	1	570	80.022
CMB4	Crossover_4	1.0-rc12	20101007.133823	experimental	320	0	2	2v5	0.150000	1	0	0	absent	1	536	80.034
CMB4	Crossover_4	1.0-rc12	20101007.133827	experimental	321	0	8	orientation	0.700000	1	0	0	absent	1	529	80.026
CMB4	Crossover_4	1.0-rc12	20101007.133831	experimental	322	1	1	orientation	0.700000	1	0	0	present	1	487	80.027
CMB4	Crossover_4	1.0-rc12	20101007.133834	experimental	323	0	2	orientation	0.700000	1	0	0	absent	1	522	80.031
CMB4	Crossover_4	1.0-rc12	20101007.133837	experimental	324	1	8	orientation	0.700000	1	0	0	absent	0	605	80.039
CMB4	Crossover_4	1.0-rc12	20101007.133841	experimental	325	1	4	2v5	0.150000	1	0	0	present	1	508	80.036
CMB4	Crossover_4	1.0-rc12	20101007.133844	experimental	326	1	2	orientation	0.700000	1	0	0	present	1	915	80.029
CMB4	Crossover_4	1.0-rc12	20101007.133848	experimental	327	1	2	orientation	0.700000	1	0	0	present	1	522	80.031
CMB4	Crossover_4	1.0-rc12	20101007.133852	experimental	328	0	8	orientation	0.700000	1	0	0	absent	1	833	80.034
CMB4	Crossover_4	1.0-rc12	20101007.133856	experimental	329	0	1	2v5	0.150000	1	0	0	absent	1	487	80.034
CMB4	Crossover_4	1.0-rc12	20101007.133859	experimental	330	0	8	orientation	0.700000	1	0	0	absent	1	543	80.033
CMB4	Crossover_4	1.0-rc12	20101007.133903	experimental	331	1	1	2v5	0.150000	1	0	0	present	1	480	80.030
CMB4	Crossover_4	1.0-rc12	20101007.133906	experimental	332	0	8	orientation	0.700000	1	0	0	absent	1	522	80.022
CMB4	Crossover_4	1.0-rc12	20101007.133910	experimental	333	0	8	2v5	0.150000	1	0	0	absent	1	701	80.024
CMB4	Crossover_4	1.0-rc12	20101007.133913	experimental	334	0	4	2v5	0.150000	1	0	0	absent	1	529	80.025
CMB4	Crossover_4	1.0-rc12	20101007.133917	experimental	335	0	8	2v5	0.150000	1	0	0	absent	1	598	80.024
CMB4	Crossover_4	1.0-rc12	20101007.133920	experimental	336	1	4	orientation	0.700000	1	0	0	present	1	626	80.025
CMB4	Crossover_4	1.0-rc12	20101007.133924	experimental	337	1	2	orientation	0.700000	1	0	0	present	1	515	80.026
CMB4	Crossover_4	1.0-rc12	20101007.133928	experimental	338	0	4	2v5	0.150000	1	0	0	absent	1	777	80.022
CMB4	Crossover_4	1.0-rc12	20101007.133931	experimental	339	0	2	2v5	0.150000	1	0	0	absent	1	570	80.032
CMB4	Crossover_4	1.0-rc12	20101007.133935	experimental	340	1	1	2v5	0.150000	1	0	0	present	1	522	80.034
CMB4	Crossover_4	1.0-rc12	20101007.133938	experimental	341	0	8	2v5	0.150000	1	0	0	absent	1	639	80.023
CMB4	Crossover_4	1.0-rc12	20101007.133942	experimental	342	1	4	orientation	0.700000	1	0	0	present	1	653	80.032
CMB4	Crossover_4	1.0-rc12	20101007.133946	experimental	343	0	2	2v5	0.150000	1	0	0	absent	1	722	80.029
CMB4	Crossover_4	1.0-rc12	20101007.133949	experimental	344	0	4	orientation	0.700000	1	0	0	absent	1	487	80.035
CMB4	Crossover_4	1.0-rc12	20101007.133953	experimental	345	0	8	orientation	0.700000	1	0	0	absent	1	681	80.026
CMB4	Crossover_4	1.0-rc12	20101007.133956	experimental	346	0	8	2v5	0.150000	1	0	0	absent	1	632	80.031
CMB4	Crossover_4	1.0-rc12	20101007.134000	experimental	347	1	1	2v5	0.150000	1	0	0	present	1	488	80.029
CMB4	Crossover_4	1.0-rc12	20101007.134004	experimental	348	0	1	2v5	0.150000	1	0	0	absent	1	501	80.028
CMB4	Crossover_4	1.0-rc12	20101007.134007	experimental	349	0	4	2v5	0.150000	1	0	0	absent	1	529	80.031
CMB4	Crossover_4	1.0-rc12	20101007.134011	experimental	350	0	1	2v5	0.150000	1	0	0	absent	1	515	80.019
CMB4	Crossover_4	1.0-rc12	20101007.134022	experimental	351	1	2	2v5	0.150000	1	0	0	present	1	632	80.028
CMB4	Crossover_4	1.0-rc12	20101007.134026	experimental	352	0	1	orientation	0.700000	1	0	0	absent	1	494	80.021
CMB4	Crossover_4	1.0-rc12	20101007.134029	experimental	353	0	2	2v5	0.150000	1	0	0	absent	1	501	80.033
CMB4	Crossover_4	1.0-rc12	20101007.134033	experimental	354	0	1	2v5	0.150000	1	0	0	absent	1	446	80.029
CMB4	Crossover_4	1.0-rc12	20101007.134036	experimental	355	1	1	2v5	0.150000	1	0	0	present	1	446	80.021
CMB4	Crossover_4	1.0-rc12	20101007.134040	experimental	356	0	1	orientation	0.700000	1	0	0	absent	1	467	80.034
CMB4	Crossover_4	1.0-rc12	20101007.134043	experimental	357	0	2	orientation	0.700000	1	0	0	absent	1	418	80.030
CMB4	Crossover_4	1.0-rc12	20101007.134046	experimental	358	0	8	orientation	0.700000	1	0	0	absent	1	446	80.028
CMB4	Crossover_4	1.0-rc12	20101007.134050	experimental	359	1	2	orientation	0.700000	1	0	0	present	1	550	80.031
CMB4	Crossover_4	1.0-rc12	20101007.134053	experimental	360	0	2	orientation	0.700000	1	0	0	absent	1	556	80.022
CMB4	Crossover_4	1.0-rc12	20101007.134057	experimental	361	0	2	orientation	0.700000	1	0	0	absent	1	446	80.035
CMB4	Crossover_4	1.0-rc12	20101007.134100	experimental	362	0	8	orientation	0.700000	1	0	0	absent	1	480	80.020
CMB4	Crossover_4	1.0-rc12	20101007.134104	experimental	363	0	1	orientation	0.700000	1	0	0	absent	1	404	80.030
CMB4	Crossover_4	1.0-rc12	20101007.134107	experimental	364	1	2	2v5	0.150000	1	0	0	present	1	977	80.040
CMB4	Crossover_4	1.0-rc12	20101007.134111	experimental	365	0	4	2v5	0.150000	1	0	0	absent	1	529	80.036
CMB4	Crossover_4	1.0-rc12	20101007.134115	experimental	366	1	2	2v5	0.150000	1	0	0	present	1	515	80.023
CMB4	Crossover_4	1.0-rc12	20101007.134118	experimental	367	0	1	2v5	0.150000	1	0	0	absent	1	501	80.032
CMB4	Crossover_4	1.0-rc12	20101007.134122	experimental	368	0	2	2v5	0.150000	1	0	0	absent	1	577	80.031
CMB4	Crossover_4	1.0-rc12	20101007.134125	experimental	369	0	4	orientation	0.700000	1	0	0	absent	1	542	80.020
CMB4	Crossover_4	1.0-rc12	20101007.134129	experimental	370	1	1	2v5	0.150000	1	0	0	present	1	411	80.022
CMB4	Crossover_4	1.0-rc12	20101007.134132	experimental	371	1	8	2v5	0.150000	1	0	0	present	1	543	80.035
CMB4	Crossover_4	1.0-rc12	20101007.134135	experimental	372	0	4	2v5	0.150000	1	0	0	absent	1	611	80.034
CMB4	Crossover_4	1.0-rc12	20101007.134139	experimental	373	1	1	orientation	0.700000	1	0	0	present	1	584	80.032
CMB4	Crossover_4	1.0-rc12	20101007.134143	experimental	374	1	8	orientation	0.700000	1	0	0	absent	0	797	80.026
CMB4	Crossover_4	1.0-rc12	20101007.134146	experimental	375	0	8	orientation	0.700000	1	0	0	absent	1	584	80.033
CMB4	Crossover_4	1.0-rc12	20101007.134150	experimental	376	1	2	2v5	0.150000	1	0	0	present	1	929	80.025
CMB4	Crossover_4	1.0-rc12	20101007.134154	experimental	377	1	4	2v5	0.150000	1	0	0	present	1	515	80.035
CMB4	Crossover_4	1.0-rc12	20101007.134157	experimental	378	0	1	orientation	0.700000	1	0	0	absent	1	439	80.021
CMB4	Crossover_4	1.0-rc12	20101007.134201	experimental	379	1	1	orientation	0.700000	1	0	0	present	1	543	80.024
CMB4	Crossover_4	1.0-rc12	20101007.134204	experimental	380	1	2	orientation	0.700000	1	0	0	present	1	495	80.030
CMB4	Crossover_4	1.0-rc12	20101007.134208	experimental	381	0	4	orientation	0.700000	1	0	0	absent	1	563	80.027
CMB4	Crossover_4	1.0-rc12	20101007.134211	experimental	382	1	1	2v5	0.150000	1	0	0	present	1	370	80.030
CMB4	Crossover_4	1.0-rc12	20101007.134215	experimental	383	0	2	2v5	0.150000	1	0	0	absent	1	508	80.036
CMB4	Crossover_4	1.0-rc12	20101007.134218	experimental	384	1	8	2v5	0.150000	1	0	0	present	1	488	80.038
CMB4	Crossover_4	1.0-rc12	20101007.134222	experimental	385	1	4	orientation	0.700000	1	0	0	absent	0	474	80.024
CMB4	Crossover_4	1.0-rc12	20101007.134225	experimental	386	0	8	2v5	0.150000	1	0	0	absent	1	563	80.024
CMB4	Crossover_4	1.0-rc12	20101007.134228	experimental	387	1	4	orientation	0.700000	1	0	0	present	1	515	80.026
CMB4	Crossover_4	1.0-rc12	20101007.134232	experimental	388	1	8	orientation	0.700000	1	0	0	present	1	481	80.032
CMB4	Crossover_4	1.0-rc12	20101007.134235	experimental	389	1	2	orientation	0.700000	1	0	0	present	1	487	80.031
CMB4	Crossover_4	1.0-rc12	20101007.134239	experimental	390	1	4	orientation	0.700000	1	0	0	present	1	474	80.027
CMB4	Crossover_4	1.0-rc12	20101007.134242	experimental	391	1	8	orientation	0.700000	1	0	0	present	1	515	80.021
CMB4	Crossover_4	1.0-rc12	20101007.134246	experimental	392	1	2	2v5	0.150000	1	0	0	present	1	570	80.022
CMB4	Crossover_4	1.0-rc12	20101007.134249	experimental	393	0	1	orientation	0.700000	1	0	0	absent	1	398	80.032
CMB4	Crossover_4	1.0-rc12	20101007.134253	experimental	394	0	4	orientation	0.700000	1	0	0	absent	1	508	80.032
CMB4	Crossover_4	1.0-rc12	20101007.134256	experimental	395	0	2	orientation	0.700000	1	0	0	present	0	598	80.030
CMB4	Crossover_4	1.0-rc12	20101007.134300	experimental	396	0	4	2v5	0.150000	1	0	0	absent	1	598	80.037
