Subject	Code	Version	Timestamp	Block	Trial	Target	SetSize	StimSet	Noise	Precue	StairTrack	Reversal	Response	Accuracy	RT	ActualExpDur
ATM3	Crossover_4	1.0-rc12	20100921.090841	practice	1	0	2	orientation	0.000000	1	0	0	absent	1	1857	80.022
ATM3	Crossover_4	1.0-rc12	20100921.090846	practice	2	0	2	orientation	0.000000	1	0	0	absent	1	459	80.033
ATM3	Crossover_4	1.0-rc12	20100921.090850	practice	3	0	8	orientation	0.000000	1	0	0	absent	1	666	80.037
ATM3	Crossover_4	1.0-rc12	20100921.090853	practice	4	1	4	orientation	0.000000	1	0	0	15	-3	384	80.033
ATM3	Crossover_4	1.0-rc12	20100921.090857	practice	5	0	8	orientation	0.000000	1	0	0	absent	1	5260	80.032
ATM3	Crossover_4	1.0-rc12	20100921.090905	practice	6	0	8	orientation	0.000000	1	0	0	absent	1	522	80.036
ATM3	Crossover_4	1.0-rc12	20100921.090909	practice	7	1	1	orientation	0.000000	1	0	0	51	-3	418	80.038
ATM3	Crossover_4	1.0-rc12	20100921.090912	practice	8	1	4	orientation	0.000000	1	0	0	absent	0	1292	80.041
ATM3	Crossover_4	1.0-rc12	20100921.090917	practice	9	0	1	orientation	0.000000	1	0	0	absent	1	569	80.031
ATM3	Crossover_4	1.0-rc12	20100921.090920	practice	10	0	1	orientation	0.000000	1	0	0	absent	1	487	80.031
ATM3	Crossover_4	1.0-rc12	20100921.090924	practice	11	1	4	orientation	0.000000	1	0	0	present	1	418	80.037
ATM3	Crossover_4	1.0-rc12	20100921.090927	practice	12	1	8	orientation	0.000000	1	0	0	present	1	411	80.021
ATM3	Crossover_4	1.0-rc12	20100921.090931	practice	13	0	8	orientation	0.000000	1	0	0	absent	1	521	80.029
ATM3	Crossover_4	1.0-rc12	20100921.090934	practice	14	0	4	orientation	0.000000	1	0	0	absent	1	576	80.031
ATM3	Crossover_4	1.0-rc12	20100921.090938	practice	15	1	2	orientation	0.000000	1	0	0	present	1	404	80.040
ATM3	Crossover_4	1.0-rc12	20100921.090941	practice	16	0	4	orientation	0.000000	1	0	0	absent	1	494	80.024
ATM3	Crossover_4	1.0-rc12	20100921.090945	practice	17	0	1	orientation	0.000000	1	0	0	absent	1	411	80.024
ATM3	Crossover_4	1.0-rc12	20100921.090948	practice	18	0	4	orientation	0.000000	1	0	0	absent	1	418	80.021
ATM3	Crossover_4	1.0-rc12	20100921.090952	practice	19	1	8	orientation	0.000000	1	0	0	present	1	425	80.022
ATM3	Crossover_4	1.0-rc12	20100921.090955	practice	20	1	8	orientation	0.000000	1	0	0	present	1	404	80.023
ATM3	Crossover_4	1.0-rc12	20100921.090959	practice	21	1	1	orientation	0.000000	1	0	0	present	1	10255	80.031
ATM3	Crossover_4	1.0-rc12	20100921.091012	practice	22	1	1	orientation	0.000000	1	0	0	present	1	515	80.036
ATM3	Crossover_4	1.0-rc12	20100921.091015	practice	23	0	2	orientation	0.000000	1	0	0	absent	1	466	80.022
ATM3	Crossover_4	1.0-rc12	20100921.091019	practice	24	1	1	orientation	0.000000	1	0	0	present	1	10974	80.036
ATM3	Crossover_4	1.0-rc12	20100921.091033	practice	25	1	2	orientation	0.000000	1	0	0	present	1	507	80.030
ATM3	Crossover_4	1.0-rc12	20100921.091036	practice	26	1	2	orientation	0.000000	1	0	0	present	1	466	80.035
ATM3	Crossover_4	1.0-rc12	20100921.091040	practice	27	0	1	orientation	0.000000	1	0	0	absent	1	439	80.034
ATM3	Crossover_4	1.0-rc12	20100921.091043	practice	28	0	2	orientation	0.000000	1	0	0	absent	1	473	80.026
ATM3	Crossover_4	1.0-rc12	20100921.091047	practice	29	1	8	orientation	0.000000	1	0	0	present	1	404	80.036
ATM3	Crossover_4	1.0-rc12	20100921.091050	practice	30	1	1	orientation	0.000000	1	0	0	present	1	383	80.025
ATM3	Crossover_4	1.0-rc12	20100921.091054	practice	31	1	4	orientation	0.000000	1	0	0	present	1	487	80.021
ATM3	Crossover_4	1.0-rc12	20100921.091057	practice	32	1	4	orientation	0.000000	1	0	0	present	1	411	80.028
ATM3	Crossover_4	1.0-rc12	20100921.091101	practice	33	0	1	orientation	0.000000	1	0	0	absent	1	425	80.030
ATM3	Crossover_4	1.0-rc12	20100921.091104	practice	34	1	8	orientation	0.000000	1	0	0	present	1	411	80.032
ATM3	Crossover_4	1.0-rc12	20100921.091107	practice	35	0	2	orientation	0.000000	1	0	0	absent	1	445	80.034
ATM3	Crossover_4	1.0-rc12	20100921.091111	practice	36	0	8	orientation	0.000000	1	0	0	absent	1	466	80.036
ATM3	Crossover_4	1.0-rc12	20100921.091114	practice	37	1	2	orientation	0.000000	1	0	0	present	1	418	80.020
ATM3	Crossover_4	1.0-rc12	20100921.091118	practice	38	1	2	orientation	0.000000	1	0	0	absent	0	377	80.026
ATM3	Crossover_4	1.0-rc12	20100921.091121	practice	39	0	4	orientation	0.000000	1	0	0	absent	1	466	80.018
ATM3	Crossover_4	1.0-rc12	20100921.091125	practice	40	0	4	orientation	0.000000	1	0	0	absent	1	508	80.025
ATM3	Crossover_4	1.0-rc12	20100921.091222	practice	1	0	4	2v5	0.000000	1	0	0	absent	1	874	80.028
ATM3	Crossover_4	1.0-rc12	20100921.091226	practice	2	1	1	2v5	0.000000	1	0	0	present	1	476	80.029
ATM3	Crossover_4	1.0-rc12	20100921.091229	practice	3	1	8	2v5	0.000000	1	0	0	present	1	1534	80.022
ATM3	Crossover_4	1.0-rc12	20100921.091234	practice	4	0	2	2v5	0.000000	1	0	0	absent	1	567	80.024
ATM3	Crossover_4	1.0-rc12	20100921.091237	practice	5	1	2	2v5	0.000000	1	0	0	present	1	803	80.033
ATM3	Crossover_4	1.0-rc12	20100921.091241	practice	6	1	8	2v5	0.000000	1	0	0	absent	0	1548	80.039
ATM3	Crossover_4	1.0-rc12	20100921.091246	practice	7	1	8	2v5	0.000000	1	0	0	present	1	665	80.027
ATM3	Crossover_4	1.0-rc12	20100921.091249	practice	8	0	8	2v5	0.000000	1	0	0	present	0	1186	80.040
ATM3	Crossover_4	1.0-rc12	20100921.091254	practice	9	1	8	2v5	0.000000	1	0	0	present	1	685	80.023
ATM3	Crossover_4	1.0-rc12	20100921.091257	practice	10	1	2	2v5	0.000000	1	0	0	present	1	1201	80.035
ATM3	Crossover_4	1.0-rc12	20100921.091301	practice	11	0	2	2v5	0.000000	1	0	0	absent	1	476	80.024
ATM3	Crossover_4	1.0-rc12	20100921.091305	practice	12	1	4	2v5	0.000000	1	0	0	absent	0	511	80.039
ATM3	Crossover_4	1.0-rc12	20100921.091309	practice	13	0	1	2v5	0.000000	1	0	0	absent	1	532	80.030
ATM3	Crossover_4	1.0-rc12	20100921.091312	practice	14	0	1	2v5	0.000000	1	0	0	absent	1	559	80.031
ATM3	Crossover_4	1.0-rc12	20100921.091316	practice	15	1	4	2v5	0.000000	1	0	0	present	1	532	80.023
ATM3	Crossover_4	1.0-rc12	20100921.091319	practice	16	1	8	2v5	0.000000	1	0	0	present	1	525	80.019
ATM3	Crossover_4	1.0-rc12	20100921.091323	practice	17	0	8	2v5	0.000000	1	0	0	absent	1	539	80.027
ATM3	Crossover_4	1.0-rc12	20100921.091326	practice	18	1	4	2v5	0.000000	1	0	0	present	1	469	80.028
ATM3	Crossover_4	1.0-rc12	20100921.091330	practice	19	0	4	2v5	0.000000	1	0	0	absent	1	511	80.039
ATM3	Crossover_4	1.0-rc12	20100921.091333	practice	20	0	1	2v5	0.000000	1	0	0	absent	1	490	80.026
ATM3	Crossover_4	1.0-rc12	20100921.091337	practice	21	0	8	2v5	0.000000	1	0	0	present	0	1062	80.034
ATM3	Crossover_4	1.0-rc12	20100921.091341	practice	22	0	2	2v5	0.000000	1	0	0	present	0	545	80.034
ATM3	Crossover_4	1.0-rc12	20100921.091345	practice	23	0	8	2v5	0.000000	1	0	0	present	0	831	80.024
ATM3	Crossover_4	1.0-rc12	20100921.091348	practice	24	0	8	2v5	0.000000	1	0	0	absent	1	477	80.038
ATM3	Crossover_4	1.0-rc12	20100921.091352	practice	25	1	2	2v5	0.000000	1	0	0	absent	0	1075	80.027
ATM3	Crossover_4	1.0-rc12	20100921.091356	practice	26	1	4	2v5	0.000000	1	0	0	absent	0	602	80.026
ATM3	Crossover_4	1.0-rc12	20100921.091400	practice	27	0	1	2v5	0.000000	1	0	0	absent	1	1195	80.028
ATM3	Crossover_4	1.0-rc12	20100921.091404	practice	28	1	4	2v5	0.000000	1	0	0	absent	0	756	80.028
ATM3	Crossover_4	1.0-rc12	20100921.091408	practice	29	1	1	2v5	0.000000	1	0	0	present	1	456	80.034
ATM3	Crossover_4	1.0-rc12	20100921.091411	practice	30	1	1	2v5	0.000000	1	0	0	present	1	434	80.034
ATM3	Crossover_4	1.0-rc12	20100921.091415	practice	31	0	1	2v5	0.000000	1	0	0	absent	1	504	80.021
ATM3	Crossover_4	1.0-rc12	20100921.091418	practice	32	0	4	2v5	0.000000	1	0	0	absent	1	581	80.032
ATM3	Crossover_4	1.0-rc12	20100921.091422	practice	33	1	2	2v5	0.000000	1	0	0	present	1	518	80.023
ATM3	Crossover_4	1.0-rc12	20100921.091425	practice	34	1	1	2v5	0.000000	1	0	0	present	1	587	80.030
ATM3	Crossover_4	1.0-rc12	20100921.091429	practice	35	1	1	2v5	0.000000	1	0	0	present	1	483	80.032
ATM3	Crossover_4	1.0-rc12	20100921.091433	practice	36	0	4	2v5	0.000000	1	0	0	absent	1	657	80.030
ATM3	Crossover_4	1.0-rc12	20100921.091436	practice	37	0	2	2v5	0.000000	1	0	0	absent	1	504	80.029
ATM3	Crossover_4	1.0-rc12	20100921.091440	practice	38	1	2	2v5	0.000000	1	0	0	present	1	455	80.031
ATM3	Crossover_4	1.0-rc12	20100921.091443	practice	39	0	4	2v5	0.000000	1	0	0	present	0	831	80.033
ATM3	Crossover_4	1.0-rc12	20100921.091447	practice	40	0	2	2v5	0.000000	1	0	0	absent	1	546	80.028
ATM3	Crossover_4	1.0-rc12	20100921.091530	practice	1	1	2	2v5	0.000000	1	0	0	present	1	1233	80.028
ATM3	Crossover_4	1.0-rc12	20100921.091534	practice	2	1	4	2v5	0.000000	1	0	0	present	1	549	80.040
ATM3	Crossover_4	1.0-rc12	20100921.091538	practice	3	0	2	2v5	0.000000	1	0	0	absent	1	1010	80.031
ATM3	Crossover_4	1.0-rc12	20100921.091542	practice	4	1	8	2v5	0.000000	1	0	0	present	1	576	80.035
ATM3	Crossover_4	1.0-rc12	20100921.091545	practice	5	1	2	2v5	0.000000	1	0	0	present	1	756	80.029
ATM3	Crossover_4	1.0-rc12	20100921.091549	practice	6	0	8	2v5	0.000000	1	0	0	present	0	659	80.038
ATM3	Crossover_4	1.0-rc12	20100921.091553	practice	7	1	2	2v5	0.000000	1	0	0	present	1	481	80.021
ATM3	Crossover_4	1.0-rc12	20100921.091556	practice	8	0	4	2v5	0.000000	1	0	0	absent	1	564	80.036
ATM3	Crossover_4	1.0-rc12	20100921.091600	practice	9	1	2	2v5	0.000000	1	0	0	present	1	487	80.033
ATM3	Crossover_4	1.0-rc12	20100921.091604	practice	10	0	2	2v5	0.000000	1	0	0	absent	1	543	80.027
ATM3	Crossover_4	1.0-rc12	20100921.091607	practice	11	1	1	2v5	0.000000	1	0	0	present	1	570	80.031
ATM3	Crossover_4	1.0-rc12	20100921.091611	practice	12	0	8	2v5	0.000000	1	0	0	present	0	777	80.026
ATM3	Crossover_4	1.0-rc12	20100921.091615	practice	13	0	8	2v5	0.000000	1	0	0	absent	1	944	80.032
ATM3	Crossover_4	1.0-rc12	20100921.091619	practice	14	0	4	2v5	0.000000	1	0	0	absent	1	557	80.040
ATM3	Crossover_4	1.0-rc12	20100921.091622	practice	15	0	8	2v5	0.000000	1	0	0	absent	1	522	80.018
ATM3	Crossover_4	1.0-rc12	20100921.091626	practice	16	0	1	2v5	0.000000	1	0	0	absent	1	473	80.034
ATM3	Crossover_4	1.0-rc12	20100921.091629	practice	17	1	2	2v5	0.000000	1	0	0	present	1	590	80.026
ATM3	Crossover_4	1.0-rc12	20100921.091633	practice	18	0	8	2v5	0.000000	1	0	0	absent	1	611	80.033
ATM3	Crossover_4	1.0-rc12	20100921.091636	practice	19	0	2	2v5	0.000000	1	0	0	absent	1	528	80.027
ATM3	Crossover_4	1.0-rc12	20100921.091640	practice	20	0	4	2v5	0.000000	1	0	0	absent	1	598	80.033
ATM3	Crossover_4	1.0-rc12	20100921.091644	practice	21	1	1	2v5	0.000000	1	0	0	present	1	735	80.036
ATM3	Crossover_4	1.0-rc12	20100921.091647	practice	22	1	8	2v5	0.000000	1	0	0	present	1	687	80.029
ATM3	Crossover_4	1.0-rc12	20100921.091651	practice	23	0	4	2v5	0.000000	1	0	0	absent	1	535	80.031
ATM3	Crossover_4	1.0-rc12	20100921.091655	practice	24	0	8	2v5	0.000000	1	0	0	absent	1	763	80.027
ATM3	Crossover_4	1.0-rc12	20100921.091659	practice	25	0	1	2v5	0.000000	1	0	0	absent	1	812	80.028
ATM3	Crossover_4	1.0-rc12	20100921.091702	practice	26	0	1	2v5	0.000000	1	0	0	absent	1	715	80.030
ATM3	Crossover_4	1.0-rc12	20100921.091706	practice	27	1	8	2v5	0.000000	1	0	0	present	1	605	80.027
ATM3	Crossover_4	1.0-rc12	20100921.091710	practice	28	1	4	2v5	0.000000	1	0	0	present	1	922	80.036
ATM3	Crossover_4	1.0-rc12	20100921.091714	practice	29	1	1	2v5	0.000000	1	0	0	present	1	529	80.028
ATM3	Crossover_4	1.0-rc12	20100921.091717	practice	30	1	2	2v5	0.000000	1	0	0	present	1	542	80.023
ATM3	Crossover_4	1.0-rc12	20100921.091721	practice	31	1	4	2v5	0.000000	1	0	0	present	1	1107	80.031
ATM3	Crossover_4	1.0-rc12	20100921.091725	practice	32	0	4	2v5	0.000000	1	0	0	absent	1	660	80.032
ATM3	Crossover_4	1.0-rc12	20100921.091729	practice	33	0	2	2v5	0.000000	1	0	0	absent	1	598	80.023
ATM3	Crossover_4	1.0-rc12	20100921.091732	practice	34	1	1	2v5	0.000000	1	0	0	present	1	1115	80.023
ATM3	Crossover_4	1.0-rc12	20100921.091737	practice	35	1	1	2v5	0.000000	1	0	0	present	1	1115	80.029
ATM3	Crossover_4	1.0-rc12	20100921.091741	practice	36	0	1	2v5	0.000000	1	0	0	absent	1	818	80.035
ATM3	Crossover_4	1.0-rc12	20100921.091745	practice	37	0	4	2v5	0.000000	1	0	0	absent	1	2254	80.026
ATM3	Crossover_4	1.0-rc12	20100921.091750	practice	38	0	4	2v5	0.000000	1	0	0	absent	1	1556	80.034
ATM3	Crossover_4	1.0-rc12	20100921.091754	practice	39	0	2	2v5	0.000000	1	0	0	absent	1	763	80.036
ATM3	Crossover_4	1.0-rc12	20100921.091758	practice	40	0	8	2v5	0.000000	1	0	0	absent	1	1660	80.035
ATM3	Crossover_4	1.0-rc12	20100921.091803	practice	41	1	8	2v5	0.000000	1	0	0	present	1	1301	80.033
ATM3	Crossover_4	1.0-rc12	20100921.091807	practice	42	1	4	2v5	0.000000	1	0	0	present	1	604	80.022
ATM3	Crossover_4	1.0-rc12	20100921.091811	practice	43	0	1	2v5	0.000000	1	0	0	absent	1	460	80.033
ATM3	Crossover_4	1.0-rc12	20100921.091814	practice	44	1	8	2v5	0.000000	1	0	0	present	1	611	80.030
ATM3	Crossover_4	1.0-rc12	20100921.091818	practice	45	1	2	2v5	0.000000	1	0	0	present	1	618	80.028
ATM3	Crossover_4	1.0-rc12	20100921.091822	practice	46	1	4	2v5	0.000000	1	0	0	absent	0	611	80.021
ATM3	Crossover_4	1.0-rc12	20100921.091825	practice	47	0	2	2v5	0.000000	1	0	0	present	0	653	80.019
ATM3	Crossover_4	1.0-rc12	20100921.091829	practice	48	0	2	2v5	0.000000	1	0	0	absent	1	570	80.024
ATM3	Crossover_4	1.0-rc12	20100921.091833	practice	49	1	1	2v5	0.000000	1	0	0	present	1	535	80.027
ATM3	Crossover_4	1.0-rc12	20100921.091836	practice	50	0	1	2v5	0.000000	1	0	0	absent	1	846	80.031
ATM3	Crossover_4	1.0-rc12	20100921.092115	practice	1	1	2	orientation	0.000000	1	0	0	present	1	668	80.025
ATM3	Crossover_4	1.0-rc12	20100921.092119	practice	2	1	1	2v5	0.000000	1	0	0	present	1	577	80.033
ATM3	Crossover_4	1.0-rc12	20100921.092122	practice	3	1	1	orientation	0.000000	1	0	0	present	1	577	80.029
ATM3	Crossover_4	1.0-rc12	20100921.092126	practice	4	1	8	orientation	0.000000	1	0	0	present	1	495	80.036
ATM3	Crossover_4	1.0-rc12	20100921.092129	practice	5	1	2	2v5	0.000000	1	0	0	present	1	647	80.032
ATM3	Crossover_4	1.0-rc12	20100921.092133	practice	6	1	2	orientation	0.000000	1	0	0	present	1	460	80.031
ATM3	Crossover_4	1.0-rc12	20100921.092137	practice	7	0	1	orientation	0.000000	1	0	0	absent	1	557	80.027
ATM3	Crossover_4	1.0-rc12	20100921.092140	practice	8	1	8	2v5	0.000000	1	0	0	present	1	729	80.035
ATM3	Crossover_4	1.0-rc12	20100921.092144	practice	9	1	4	2v5	0.000000	1	0	0	present	1	543	80.039
ATM3	Crossover_4	1.0-rc12	20100921.092147	practice	10	1	8	orientation	0.000000	1	0	0	present	1	480	80.029
ATM3	Crossover_4	1.0-rc12	20100921.092151	practice	11	0	8	2v5	0.000000	1	0	0	present	0	543	80.031
ATM3	Crossover_4	1.0-rc12	20100921.092154	practice	12	0	1	2v5	0.000000	1	0	0	absent	1	549	80.030
ATM3	Crossover_4	1.0-rc12	20100921.092158	practice	13	1	2	2v5	0.000000	1	0	0	present	1	398	80.033
ATM3	Crossover_4	1.0-rc12	20100921.092201	practice	14	0	1	orientation	0.000000	1	0	0	absent	1	867	80.033
ATM3	Crossover_4	1.0-rc12	20100921.092205	practice	15	0	2	orientation	0.000000	1	0	0	absent	1	660	80.031
ATM3	Crossover_4	1.0-rc12	20100921.092209	practice	16	0	8	orientation	0.000000	1	0	0	absent	1	516	80.030
ATM3	Crossover_4	1.0-rc12	20100921.092212	practice	17	0	4	2v5	0.000000	1	0	0	absent	1	2136	80.030
ATM3	Crossover_4	1.0-rc12	20100921.092218	practice	18	1	4	2v5	0.000000	1	0	0	present	1	1556	80.037
ATM3	Crossover_4	1.0-rc12	20100921.092222	practice	19	0	4	orientation	0.000000	1	0	0	absent	1	578	80.018
ATM3	Crossover_4	1.0-rc12	20100921.092226	practice	20	0	1	2v5	0.000000	1	0	0	absent	1	611	80.019
ATM3	Crossover_4	1.0-rc12	20100921.092229	practice	21	1	4	orientation	0.000000	1	0	0	present	1	480	80.026
ATM3	Crossover_4	1.0-rc12	20100921.092233	practice	22	0	8	orientation	0.000000	1	0	0	absent	1	563	80.029
ATM3	Crossover_4	1.0-rc12	20100921.092236	practice	23	0	1	orientation	0.000000	1	0	0	absent	1	542	80.038
ATM3	Crossover_4	1.0-rc12	20100921.092240	practice	24	0	1	2v5	0.000000	1	0	0	absent	1	564	80.031
ATM3	Crossover_4	1.0-rc12	20100921.092244	practice	25	1	4	2v5	0.000000	1	0	0	present	1	964	80.023
ATM3	Crossover_4	1.0-rc12	20100921.092248	practice	26	1	2	2v5	0.000000	1	0	0	present	1	1928	80.028
ATM3	Crossover_4	1.0-rc12	20100921.092252	practice	27	1	4	orientation	0.000000	1	0	0	present	1	474	80.033
ATM3	Crossover_4	1.0-rc12	20100921.092256	practice	28	0	1	2v5	0.000000	1	0	0	absent	1	619	80.031
ATM3	Crossover_4	1.0-rc12	20100921.092300	practice	29	1	1	2v5	0.000000	1	0	0	present	1	515	80.036
ATM3	Crossover_4	1.0-rc12	20100921.092303	practice	30	1	4	orientation	0.000000	1	0	0	present	1	425	80.020
ATM3	Crossover_4	1.0-rc12	20100921.092306	practice	31	0	2	2v5	0.000000	1	0	0	absent	1	714	80.028
ATM3	Crossover_4	1.0-rc12	20100921.092310	practice	32	0	2	2v5	0.000000	1	0	0	absent	1	1253	80.026
ATM3	Crossover_4	1.0-rc12	20100921.092314	practice	33	1	8	orientation	0.000000	1	0	0	present	1	467	80.033
ATM3	Crossover_4	1.0-rc12	20100921.092318	practice	34	0	4	2v5	0.000000	1	0	0	absent	1	639	80.023
ATM3	Crossover_4	1.0-rc12	20100921.092322	practice	35	1	8	orientation	0.000000	1	0	0	present	1	515	80.022
ATM3	Crossover_4	1.0-rc12	20100921.092325	practice	36	1	2	orientation	0.000000	1	0	0	present	1	425	80.029
ATM3	Crossover_4	1.0-rc12	20100921.092328	practice	37	1	1	orientation	0.000000	1	0	0	present	1	405	80.018
ATM3	Crossover_4	1.0-rc12	20100921.092332	practice	38	0	8	2v5	0.000000	1	0	0	absent	1	757	80.035
ATM3	Crossover_4	1.0-rc12	20100921.092336	practice	39	0	2	orientation	0.000000	1	0	0	absent	1	646	80.029
ATM3	Crossover_4	1.0-rc12	20100921.092339	practice	40	1	4	2v5	0.000000	1	0	0	absent	0	618	80.029
ATM3	Crossover_4	1.0-rc12	20100921.092343	practice	41	1	2	2v5	0.000000	1	0	0	present	1	576	80.036
ATM3	Crossover_4	1.0-rc12	20100921.092347	practice	42	0	8	2v5	0.000000	1	0	0	absent	1	598	80.029
ATM3	Crossover_4	1.0-rc12	20100921.092350	practice	43	1	2	orientation	0.000000	1	0	0	present	1	529	80.032
ATM3	Crossover_4	1.0-rc12	20100921.092354	practice	44	0	2	orientation	0.000000	1	0	0	absent	1	515	80.028
ATM3	Crossover_4	1.0-rc12	20100921.092357	practice	45	1	1	orientation	0.000000	1	0	0	present	1	370	80.033
ATM3	Crossover_4	1.0-rc12	20100921.092401	practice	46	0	2	orientation	0.000000	1	0	0	absent	1	549	80.036
ATM3	Crossover_4	1.0-rc12	20100921.092404	practice	47	1	4	orientation	0.000000	1	0	0	present	1	425	80.032
ATM3	Crossover_4	1.0-rc12	20100921.092408	practice	48	0	8	orientation	0.000000	1	0	0	absent	1	557	80.033
ATM3	Crossover_4	1.0-rc12	20100921.092411	practice	49	1	4	2v5	0.000000	1	0	0	absent	0	1935	80.024
ATM3	Crossover_4	1.0-rc12	20100921.092416	practice	50	1	2	orientation	0.000000	1	0	0	present	1	412	80.030
ATM3	Crossover_4	1.0-rc12	20100921.092426	practice	51	0	4	orientation	0.000000	1	0	0	absent	1	488	80.038
ATM3	Crossover_4	1.0-rc12	20100921.092429	practice	52	1	1	orientation	0.000000	1	0	0	present	1	432	80.034
ATM3	Crossover_4	1.0-rc12	20100921.092433	practice	53	0	4	orientation	0.000000	1	0	0	absent	1	501	80.032
ATM3	Crossover_4	1.0-rc12	20100921.092436	practice	54	0	4	2v5	0.000000	1	0	0	absent	1	626	80.031
ATM3	Crossover_4	1.0-rc12	20100921.092440	practice	55	1	4	2v5	0.000000	1	0	0	absent	0	1571	80.034
ATM3	Crossover_4	1.0-rc12	20100921.092445	practice	56	1	4	2v5	0.000000	1	0	0	present	1	488	80.031
ATM3	Crossover_4	1.0-rc12	20100921.092448	practice	57	0	8	2v5	0.000000	1	0	0	absent	1	495	80.034
ATM3	Crossover_4	1.0-rc12	20100921.092452	practice	58	0	8	orientation	0.000000	1	0	0	absent	1	639	80.029
ATM3	Crossover_4	1.0-rc12	20100921.092455	practice	59	0	8	orientation	0.000000	1	0	0	absent	1	839	80.029
ATM3	Crossover_4	1.0-rc12	20100921.092459	practice	60	1	8	orientation	0.000000	1	0	0	present	1	536	80.024
ATM3	Crossover_4	1.0-rc12	20100921.092503	practice	61	1	8	2v5	0.000000	1	0	0	present	1	1441	80.027
ATM3	Crossover_4	1.0-rc12	20100921.092507	practice	62	1	8	2v5	0.000000	1	0	0	absent	0	2408	80.028
ATM3	Crossover_4	1.0-rc12	20100921.092512	practice	63	1	8	2v5	0.000000	1	0	0	present	1	605	80.024
ATM3	Crossover_4	1.0-rc12	20100921.092516	practice	64	0	4	orientation	0.000000	1	0	0	absent	1	543	80.029
ATM3	Crossover_4	1.0-rc12	20100921.092520	practice	65	1	4	orientation	0.000000	1	0	0	present	1	515	80.033
ATM3	Crossover_4	1.0-rc12	20100921.092523	practice	66	0	4	orientation	0.000000	1	0	0	absent	1	640	80.030
ATM3	Crossover_4	1.0-rc12	20100921.092527	practice	67	0	4	orientation	0.000000	1	0	0	absent	1	688	80.026
ATM3	Crossover_4	1.0-rc12	20100921.092530	practice	68	0	2	orientation	0.000000	1	0	0	absent	1	619	80.031
ATM3	Crossover_4	1.0-rc12	20100921.092534	practice	69	1	1	2v5	0.000000	1	0	0	present	1	549	80.032
ATM3	Crossover_4	1.0-rc12	20100921.092538	practice	70	0	2	2v5	0.000000	1	0	0	absent	1	632	80.035
ATM3	Crossover_4	1.0-rc12	20100921.092541	practice	71	1	4	orientation	0.000000	1	0	0	present	1	515	80.030
ATM3	Crossover_4	1.0-rc12	20100921.092545	practice	72	1	8	2v5	0.000000	1	0	0	present	1	549	80.035
ATM3	Crossover_4	1.0-rc12	20100921.092548	practice	73	1	2	orientation	0.000000	1	0	0	present	1	494	80.027
ATM3	Crossover_4	1.0-rc12	20100921.092552	practice	74	1	4	orientation	0.000000	1	0	0	present	1	914	80.031
ATM3	Crossover_4	1.0-rc12	20100921.092556	practice	75	0	2	orientation	0.000000	1	0	0	absent	1	797	80.031
ATM3	Crossover_4	1.0-rc12	20100921.092600	practice	76	1	1	2v5	0.000000	1	0	0	present	1	668	80.031
ATM3	Crossover_4	1.0-rc12	20100921.092603	practice	77	1	2	2v5	0.000000	1	0	0	present	1	750	80.040
ATM3	Crossover_4	1.0-rc12	20100921.092607	practice	78	0	1	2v5	0.000000	1	0	0	absent	1	542	80.032
ATM3	Crossover_4	1.0-rc12	20100921.092611	practice	79	0	1	orientation	0.000000	1	0	0	absent	1	481	80.038
ATM3	Crossover_4	1.0-rc12	20100921.092614	practice	80	0	2	2v5	0.000000	1	0	0	absent	1	619	80.021
ATM3	Crossover_4	1.0-rc12	20100921.092618	practice	81	0	4	2v5	0.000000	1	0	0	absent	1	1116	80.019
ATM3	Crossover_4	1.0-rc12	20100921.092622	practice	82	0	8	2v5	0.000000	1	0	0	absent	1	1061	80.035
ATM3	Crossover_4	1.0-rc12	20100921.092626	practice	83	1	2	orientation	0.000000	1	0	0	present	1	453	80.019
ATM3	Crossover_4	1.0-rc12	20100921.092629	practice	84	0	1	2v5	0.000000	1	0	0	absent	1	418	80.032
ATM3	Crossover_4	1.0-rc12	20100921.092633	practice	85	1	1	orientation	0.000000	1	0	0	present	1	460	80.040
ATM3	Crossover_4	1.0-rc12	20100921.092636	practice	86	0	2	2v5	0.000000	1	0	0	absent	1	577	80.026
ATM3	Crossover_4	1.0-rc12	20100921.092640	practice	87	1	2	2v5	0.000000	1	0	0	present	1	591	80.029
ATM3	Crossover_4	1.0-rc12	20100921.092643	practice	88	1	8	2v5	0.000000	1	0	0	absent	0	722	80.019
ATM3	Crossover_4	1.0-rc12	20100921.092647	practice	89	0	1	orientation	0.000000	1	0	0	absent	1	502	80.033
ATM3	Crossover_4	1.0-rc12	20100921.092651	practice	90	0	8	2v5	0.000000	1	0	0	absent	1	1088	80.031
ATM3	Crossover_4	1.0-rc12	20100921.092655	practice	91	1	1	2v5	0.000000	1	0	0	present	1	356	80.019
ATM3	Crossover_4	1.0-rc12	20100921.092658	practice	92	0	8	orientation	0.000000	1	0	0	absent	1	460	80.031
ATM3	Crossover_4	1.0-rc12	20100921.092702	practice	93	1	1	orientation	0.000000	1	0	0	present	1	377	80.027
ATM3	Crossover_4	1.0-rc12	20100921.092705	practice	94	1	8	orientation	0.000000	1	0	0	present	1	419	80.024
ATM3	Crossover_4	1.0-rc12	20100921.092709	practice	95	1	1	orientation	0.000000	1	0	0	present	1	412	80.034
ATM3	Crossover_4	1.0-rc12	20100921.092712	practice	96	0	4	orientation	0.000000	1	0	0	absent	1	467	80.022
ATM3	Crossover_4	1.0-rc12	20100921.092715	practice	97	0	8	2v5	0.000000	1	0	0	absent	1	695	80.023
ATM3	Crossover_4	1.0-rc12	20100921.092719	practice	98	1	2	2v5	0.000000	1	0	0	present	1	398	80.040
ATM3	Crossover_4	1.0-rc12	20100921.092723	practice	99	1	8	2v5	0.000000	1	0	0	present	1	502	80.033
ATM3	Crossover_4	1.0-rc12	20100921.092726	practice	100	1	8	orientation	0.000000	1	0	0	present	1	467	80.024
ATM3	Crossover_4	1.0-rc12	20100921.093017	practice	1	1	2	2v5	0.250000	1	0	0	present	1	627	80.030
ATM3	Crossover_4	1.0-rc12	20100921.093020	practice	2	1	1	orientation	0.250000	1	0	0	present	1	536	80.025
ATM3	Crossover_4	1.0-rc12	20100921.093024	practice	3	1	8	2v5	0.250000	1	0	0	absent	0	744	80.036
ATM3	Crossover_4	1.0-rc12	20100921.093028	practice	4	0	2	orientation	0.250000	1	0	0	absent	1	579	80.024
ATM3	Crossover_4	1.0-rc12	20100921.093031	practice	5	1	8	orientation	0.250000	1	0	0	present	1	544	80.028
ATM3	Crossover_4	1.0-rc12	20100921.093035	practice	6	1	4	2v5	0.250000	1	0	0	present	1	1753	80.030
ATM3	Crossover_4	1.0-rc12	20100921.093040	practice	7	0	1	2v5	0.250000	1	0	0	absent	1	516	80.030
ATM3	Crossover_4	1.0-rc12	20100921.093043	practice	8	1	4	orientation	0.250000	1	0	0	present	1	550	80.029
ATM3	Crossover_4	1.0-rc12	20100921.093047	practice	9	1	1	2v5	0.250000	1	0	0	present	1	1665	80.021
ATM3	Crossover_4	1.0-rc12	20100921.093051	practice	10	0	4	orientation	0.250000	1	0	0	absent	1	855	80.021
ATM3	Crossover_4	1.0-rc12	20100921.093055	practice	11	0	8	orientation	0.250000	1	0	0	present	0	939	80.027
ATM3	Crossover_4	1.0-rc12	20100921.093059	practice	12	1	8	orientation	0.250000	1	0	0	present	1	591	80.037
ATM3	Crossover_4	1.0-rc12	20100921.093103	practice	13	1	1	2v5	0.250000	1	0	0	present	1	1462	80.026
ATM3	Crossover_4	1.0-rc12	20100921.093107	practice	14	1	4	2v5	0.250000	1	0	0	present	1	1299	80.029
ATM3	Crossover_4	1.0-rc12	20100921.093112	practice	15	0	1	orientation	0.250000	1	0	0	absent	1	537	80.034
ATM3	Crossover_4	1.0-rc12	20100921.093115	practice	16	0	1	2v5	0.250000	1	0	0	absent	1	565	80.029
ATM3	Crossover_4	1.0-rc12	20100921.093119	practice	17	0	2	2v5	0.250000	1	0	0	absent	1	1416	80.026
ATM3	Crossover_4	1.0-rc12	20100921.093123	practice	18	0	2	2v5	0.250000	1	0	0	absent	1	1201	80.030
ATM3	Crossover_4	1.0-rc12	20100921.093127	practice	19	0	8	2v5	0.250000	1	0	0	absent	1	1506	80.027
ATM3	Crossover_4	1.0-rc12	20100921.093132	practice	20	0	2	orientation	0.250000	1	0	0	absent	1	654	80.018
ATM3	Crossover_4	1.0-rc12	20100921.093136	staircase	1	0	2	2v5	0.250000	1	1	0	absent	1	1631	80.022
ATM3	Crossover_4	1.0-rc12	20100921.093140	staircase	2	0	2	2v5	0.250000	1	2	0	absent	1	668	80.025
ATM3	Crossover_4	1.0-rc12	20100921.093144	staircase	3	0	4	orientation	0.250000	1	1	0	absent	1	758	80.033
ATM3	Crossover_4	1.0-rc12	20100921.093148	staircase	4	0	4	orientation	0.250000	1	2	0	absent	1	585	80.022
ATM3	Crossover_4	1.0-rc12	20100921.093151	staircase	5	0	2	orientation	0.250000	1	1	0	absent	1	813	80.027
ATM3	Crossover_4	1.0-rc12	20100921.093155	staircase	6	1	2	2v5	0.250000	1	1	0	present	1	1291	80.037
ATM3	Crossover_4	1.0-rc12	20100921.093159	staircase	7	1	2	2v5	0.250000	1	2	0	present	1	669	80.027
ATM3	Crossover_4	1.0-rc12	20100921.093203	staircase	8	1	4	2v5	0.262500	1	1	0	present	1	703	80.027
ATM3	Crossover_4	1.0-rc12	20100921.093207	staircase	9	1	4	2v5	0.262500	1	2	1	absent	0	1492	80.028
ATM3	Crossover_4	1.0-rc12	20100921.093211	staircase	10	0	8	orientation	0.250000	1	2	0	absent	1	565	80.019
ATM3	Crossover_4	1.0-rc12	20100921.093215	staircase	11	1	4	2v5	0.275000	1	1	0	present	1	841	80.027
ATM3	Crossover_4	1.0-rc12	20100921.093219	staircase	12	0	4	2v5	0.212500	1	2	0	present	0	599	80.033
ATM3	Crossover_4	1.0-rc12	20100921.093223	staircase	13	0	2	2v5	0.287500	1	1	0	absent	1	509	80.025
ATM3	Crossover_4	1.0-rc12	20100921.093226	staircase	14	0	4	2v5	0.150000	1	2	0	present	0	1096	80.020
ATM3	Crossover_4	1.0-rc12	20100921.093230	staircase	15	0	1	orientation	0.250000	1	1	0	absent	1	1305	80.027
ATM3	Crossover_4	1.0-rc12	20100921.093234	staircase	16	1	1	2v5	0.287500	1	1	0	present	1	565	80.024
ATM3	Crossover_4	1.0-rc12	20100921.093238	staircase	17	0	1	orientation	0.250000	1	2	0	absent	1	530	80.029
ATM3	Crossover_4	1.0-rc12	20100921.093242	staircase	18	1	4	orientation	0.250000	1	1	0	present	1	557	80.033
ATM3	Crossover_4	1.0-rc12	20100921.093245	staircase	19	1	2	orientation	0.250000	1	2	0	present	1	481	80.028
ATM3	Crossover_4	1.0-rc12	20100921.093249	staircase	20	0	2	orientation	0.262500	1	1	0	absent	1	1019	80.027
ATM3	Crossover_4	1.0-rc12	20100921.093253	staircase	21	1	1	2v5	0.087500	1	2	2	present	1	1691	80.030
ATM3	Crossover_4	1.0-rc12	20100921.093257	staircase	22	1	8	2v5	0.300000	1	1	1	absent	0	966	80.029
ATM3	Crossover_4	1.0-rc12	20100921.093301	staircase	23	1	4	orientation	0.262500	1	2	0	present	1	481	80.030
ATM3	Crossover_4	1.0-rc12	20100921.093305	staircase	24	1	8	orientation	0.262500	1	1	0	present	1	578	80.038
ATM3	Crossover_4	1.0-rc12	20100921.093308	staircase	25	1	1	2v5	0.100000	1	2	0	present	1	495	80.038
ATM3	Crossover_4	1.0-rc12	20100921.093312	staircase	26	1	4	2v5	0.250000	1	1	2	present	1	613	80.028
ATM3	Crossover_4	1.0-rc12	20100921.093316	staircase	27	0	4	orientation	0.275000	1	2	0	absent	1	662	80.025
ATM3	Crossover_4	1.0-rc12	20100921.093319	staircase	28	0	2	2v5	0.112500	1	2	3	present	0	993	80.022
ATM3	Crossover_4	1.0-rc12	20100921.093323	staircase	29	1	1	2v5	0.262500	1	1	0	present	1	710	80.023
ATM3	Crossover_4	1.0-rc12	20100921.093327	staircase	30	1	1	2v5	0.050000	1	2	4	present	1	544	80.032
ATM3	Crossover_4	1.0-rc12	20100921.093335	staircase	31	1	2	orientation	0.275000	1	1	0	present	1	516	80.040
ATM3	Crossover_4	1.0-rc12	20100921.093339	staircase	32	1	2	orientation	0.275000	1	2	0	present	1	474	80.029
ATM3	Crossover_4	1.0-rc12	20100921.093342	staircase	33	1	2	2v5	0.275000	1	1	3	absent	0	737	80.024
ATM3	Crossover_4	1.0-rc12	20100921.093346	staircase	34	0	1	orientation	0.287500	1	1	0	absent	1	904	80.030
ATM3	Crossover_4	1.0-rc12	20100921.093350	staircase	35	0	2	orientation	0.287500	1	2	0	absent	1	557	80.020
ATM3	Crossover_4	1.0-rc12	20100921.093353	staircase	36	0	1	2v5	0.062500	1	2	0	absent	1	599	80.021
ATM3	Crossover_4	1.0-rc12	20100921.093357	staircase	37	0	1	2v5	0.225000	1	1	0	absent	1	461	80.023
ATM3	Crossover_4	1.0-rc12	20100921.093400	staircase	38	0	8	2v5	0.062500	1	2	0	absent	1	1110	80.036
ATM3	Crossover_4	1.0-rc12	20100921.093404	staircase	39	0	1	orientation	0.287500	1	1	0	absent	1	771	80.025
ATM3	Crossover_4	1.0-rc12	20100921.093408	staircase	40	1	1	2v5	0.225000	1	1	4	present	1	510	80.030
ATM3	Crossover_4	1.0-rc12	20100921.093412	staircase	41	1	8	orientation	0.287500	1	2	0	present	1	772	80.037
ATM3	Crossover_4	1.0-rc12	20100921.093416	staircase	42	1	8	orientation	0.287500	1	1	0	present	1	509	80.026
ATM3	Crossover_4	1.0-rc12	20100921.093419	staircase	43	0	8	orientation	0.300000	1	2	0	absent	1	745	80.024
ATM3	Crossover_4	1.0-rc12	20100921.093423	staircase	44	1	2	2v5	0.062500	1	2	0	present	1	557	80.034
ATM3	Crossover_4	1.0-rc12	20100921.093426	staircase	45	0	1	2v5	0.237500	1	1	0	absent	1	1414	80.033
ATM3	Crossover_4	1.0-rc12	20100921.093431	staircase	46	0	2	2v5	0.075000	1	2	0	absent	1	863	80.031
ATM3	Crossover_4	1.0-rc12	20100921.093435	staircase	47	1	2	orientation	0.300000	1	1	0	present	1	523	80.032
ATM3	Crossover_4	1.0-rc12	20100921.093438	staircase	48	0	4	orientation	0.300000	1	2	0	absent	1	558	80.022
ATM3	Crossover_4	1.0-rc12	20100921.093442	staircase	49	0	4	orientation	0.312500	1	1	0	absent	1	571	80.034
ATM3	Crossover_4	1.0-rc12	20100921.093445	staircase	50	0	8	orientation	0.300000	1	2	0	absent	1	724	80.037
ATM3	Crossover_4	1.0-rc12	20100921.093449	staircase	51	0	4	2v5	0.237500	1	1	0	absent	1	2133	80.029
ATM3	Crossover_4	1.0-rc12	20100921.093454	staircase	52	0	8	orientation	0.312500	1	1	0	absent	1	551	80.023
ATM3	Crossover_4	1.0-rc12	20100921.093458	staircase	53	1	8	2v5	0.075000	1	2	0	present	1	571	80.037
ATM3	Crossover_4	1.0-rc12	20100921.093502	staircase	54	1	4	orientation	0.300000	1	2	0	present	1	482	80.020
ATM3	Crossover_4	1.0-rc12	20100921.093505	staircase	55	1	4	orientation	0.312500	1	1	0	present	1	447	80.032
ATM3	Crossover_4	1.0-rc12	20100921.093509	staircase	56	0	1	2v5	0.237500	1	1	0	absent	1	564	80.029
ATM3	Crossover_4	1.0-rc12	20100921.093512	staircase	57	0	8	2v5	0.087500	1	2	5	present	0	1818	80.028
ATM3	Crossover_4	1.0-rc12	20100921.093517	staircase	58	0	4	2v5	0.237500	1	1	0	absent	1	571	80.030
ATM3	Crossover_4	1.0-rc12	20100921.093520	staircase	59	0	1	orientation	0.312500	1	2	0	absent	1	641	80.025
ATM3	Crossover_4	1.0-rc12	20100921.093524	staircase	60	1	8	orientation	0.325000	1	1	0	present	1	502	80.033
ATM3	Crossover_4	1.0-rc12	20100921.093528	staircase	61	1	1	orientation	0.312500	1	2	0	present	1	627	80.029
ATM3	Crossover_4	1.0-rc12	20100921.093531	staircase	62	1	4	orientation	0.337500	1	1	0	present	1	413	80.024
ATM3	Crossover_4	1.0-rc12	20100921.093535	staircase	63	1	1	orientation	0.325000	1	2	0	present	1	419	80.027
ATM3	Crossover_4	1.0-rc12	20100921.093538	staircase	64	0	8	2v5	0.025000	1	2	0	absent	1	863	80.026
ATM3	Crossover_4	1.0-rc12	20100921.093542	staircase	65	0	2	orientation	0.350000	1	1	0	absent	1	675	80.030
ATM3	Crossover_4	1.0-rc12	20100921.093546	staircase	66	0	1	2v5	0.237500	1	1	0	absent	1	703	80.019
ATM3	Crossover_4	1.0-rc12	20100921.093549	staircase	67	0	1	orientation	0.337500	1	2	0	absent	1	537	80.025
ATM3	Crossover_4	1.0-rc12	20100921.093553	staircase	68	1	4	orientation	0.350000	1	1	0	present	1	496	80.030
ATM3	Crossover_4	1.0-rc12	20100921.093557	staircase	69	0	2	2v5	0.025000	1	2	0	absent	1	578	80.028
ATM3	Crossover_4	1.0-rc12	20100921.093600	staircase	70	0	8	2v5	0.237500	1	1	0	absent	1	516	80.031
ATM3	Crossover_4	1.0-rc12	20100921.093604	staircase	71	1	2	2v5	0.025000	1	2	6	present	1	578	80.028
ATM3	Crossover_4	1.0-rc12	20100921.093607	staircase	72	0	1	2v5	0.237500	1	1	0	absent	1	599	80.030
ATM3	Crossover_4	1.0-rc12	20100921.093611	staircase	73	1	4	2v5	0.037500	1	2	7	absent	0	523	80.035
ATM3	Crossover_4	1.0-rc12	20100921.093614	staircase	74	1	4	2v5	0.237500	1	1	0	present	1	669	80.033
ATM3	Crossover_4	1.0-rc12	20100921.093618	staircase	75	0	4	orientation	0.337500	1	2	0	absent	1	516	80.028
ATM3	Crossover_4	1.0-rc12	20100921.093622	staircase	76	0	8	2v5	0.000000	1	2	0	absent	1	516	80.026
ATM3	Crossover_4	1.0-rc12	20100921.093625	staircase	77	0	2	orientation	0.362500	1	1	0	absent	1	537	80.026
ATM3	Crossover_4	1.0-rc12	20100921.093629	staircase	78	0	1	2v5	0.250000	1	1	0	absent	1	516	80.027
ATM3	Crossover_4	1.0-rc12	20100921.093632	staircase	79	0	8	orientation	0.337500	1	2	0	absent	1	447	80.025
ATM3	Crossover_4	1.0-rc12	20100921.093636	staircase	80	0	4	orientation	0.362500	1	1	0	absent	1	530	80.030
ATM3	Crossover_4	1.0-rc12	20100921.093644	staircase	81	1	4	2v5	0.000000	1	2	8	present	1	614	80.030
ATM3	Crossover_4	1.0-rc12	20100921.093647	staircase	82	1	2	orientation	0.337500	1	2	0	present	1	703	80.026
ATM3	Crossover_4	1.0-rc12	20100921.093651	staircase	83	1	8	2v5	0.250000	1	1	5	absent	0	862	80.040
ATM3	Crossover_4	1.0-rc12	20100921.093655	staircase	84	0	8	orientation	0.362500	1	1	0	absent	1	724	80.021
ATM3	Crossover_4	1.0-rc12	20100921.093659	staircase	85	0	4	2v5	0.012500	1	2	9	present	0	2349	80.022
ATM3	Crossover_4	1.0-rc12	20100921.093704	staircase	86	1	8	2v5	0.200000	1	1	0	absent	0	426	80.027
ATM3	Crossover_4	1.0-rc12	20100921.093707	staircase	87	1	2	orientation	0.350000	1	2	0	present	1	544	80.029
ATM3	Crossover_4	1.0-rc12	20100921.093711	staircase	88	1	1	orientation	0.362500	1	1	0	present	1	475	80.036
ATM3	Crossover_4	1.0-rc12	20100921.093714	staircase	89	1	2	2v5	0.000000	1	2	10	present	1	751	80.033
ATM3	Crossover_4	1.0-rc12	20100921.093718	staircase	90	0	4	2v5	0.150000	1	1	0	absent	1	530	80.025
ATM3	Crossover_4	1.0-rc12	20100921.093722	staircase	91	0	4	orientation	0.362500	1	2	0	absent	1	1194	80.035
ATM3	Crossover_4	1.0-rc12	20100921.093726	staircase	92	0	2	2v5	0.012500	1	2	0	absent	1	2223	80.028
ATM3	Crossover_4	1.0-rc12	20100921.093731	staircase	93	1	1	2v5	0.150000	1	1	6	present	1	544	80.026
ATM3	Crossover_4	1.0-rc12	20100921.093735	staircase	94	1	2	orientation	0.375000	1	1	0	present	1	538	80.031
ATM3	Crossover_4	1.0-rc12	20100921.093738	staircase	95	1	4	orientation	0.362500	1	2	0	present	1	475	80.029
ATM3	Crossover_4	1.0-rc12	20100921.093742	staircase	96	1	1	2v5	0.012500	1	2	0	present	1	793	80.033
ATM3	Crossover_4	1.0-rc12	20100921.093746	staircase	97	1	2	orientation	0.387500	1	1	0	present	1	627	80.033
ATM3	Crossover_4	1.0-rc12	20100921.093749	staircase	98	1	8	2v5	0.162500	1	1	0	present	1	1465	80.027
ATM3	Crossover_4	1.0-rc12	20100921.093754	staircase	99	1	4	2v5	0.025000	1	2	0	present	1	544	80.032
ATM3	Crossover_4	1.0-rc12	20100921.093757	staircase	100	1	4	orientation	0.375000	1	2	0	present	1	592	80.020
ATM3	Crossover_4	1.0-rc12	20100921.093801	staircase	101	0	8	orientation	0.400000	1	1	0	absent	1	564	80.028
ATM3	Crossover_4	1.0-rc12	20100921.093805	staircase	102	0	2	2v5	0.175000	1	1	0	absent	1	1991	80.025
ATM3	Crossover_4	1.0-rc12	20100921.093810	staircase	103	1	8	2v5	0.037500	1	2	0	present	1	1076	80.035
ATM3	Crossover_4	1.0-rc12	20100921.093814	staircase	104	0	4	2v5	0.175000	1	1	0	absent	1	634	80.030
ATM3	Crossover_4	1.0-rc12	20100921.093817	staircase	105	0	2	orientation	0.387500	1	2	0	absent	1	648	80.027
ATM3	Crossover_4	1.0-rc12	20100921.093821	staircase	106	1	8	orientation	0.400000	1	1	0	present	1	530	80.025
ATM3	Crossover_4	1.0-rc12	20100921.093825	staircase	107	0	2	orientation	0.387500	1	2	0	absent	1	536	80.028
ATM3	Crossover_4	1.0-rc12	20100921.093828	staircase	108	0	1	orientation	0.412500	1	1	0	absent	1	447	80.036
ATM3	Crossover_4	1.0-rc12	20100921.093832	staircase	109	0	4	2v5	0.050000	1	2	11	present	0	841	80.035
ATM3	Crossover_4	1.0-rc12	20100921.093835	staircase	110	0	8	2v5	0.175000	1	1	0	absent	1	530	80.025
ATM3	Crossover_4	1.0-rc12	20100921.093839	staircase	111	1	8	2v5	0.000000	1	2	0	absent	0	1374	80.027
ATM3	Crossover_4	1.0-rc12	20100921.093843	staircase	112	0	2	orientation	0.387500	1	2	0	absent	1	523	80.028
ATM3	Crossover_4	1.0-rc12	20100921.093847	staircase	113	1	2	2v5	0.175000	1	1	0	present	1	564	80.034
ATM3	Crossover_4	1.0-rc12	20100921.093851	staircase	114	1	8	orientation	0.412500	1	1	0	present	1	537	80.030
ATM3	Crossover_4	1.0-rc12	20100921.093854	staircase	115	1	1	orientation	0.387500	1	2	0	present	1	544	80.031
ATM3	Crossover_4	1.0-rc12	20100921.093858	staircase	116	0	8	2v5	0.000000	1	2	0	absent	1	773	80.029
ATM3	Crossover_4	1.0-rc12	20100921.093901	staircase	117	1	1	orientation	0.425000	1	1	0	present	1	1353	80.026
ATM3	Crossover_4	1.0-rc12	20100921.093906	staircase	118	1	2	2v5	0.187500	1	1	0	present	1	585	80.033
ATM3	Crossover_4	1.0-rc12	20100921.093909	staircase	119	0	8	orientation	0.400000	1	2	0	absent	1	523	80.029
ATM3	Crossover_4	1.0-rc12	20100921.093913	staircase	120	0	1	orientation	0.437500	1	1	0	absent	1	544	80.025
ATM3	Crossover_4	1.0-rc12	20100921.093917	staircase	121	1	2	orientation	0.400000	1	2	0	present	1	523	80.024
ATM3	Crossover_4	1.0-rc12	20100921.093920	staircase	122	0	2	2v5	0.000000	1	2	0	absent	1	5500	80.022
ATM3	Crossover_4	1.0-rc12	20100921.093929	staircase	123	1	8	orientation	0.437500	1	1	0	present	1	745	80.034
ATM3	Crossover_4	1.0-rc12	20100921.093932	staircase	124	0	1	2v5	0.200000	1	1	0	absent	1	1028	80.031
ATM3	Crossover_4	1.0-rc12	20100921.093936	staircase	125	0	8	2v5	0.000000	1	2	0	absent	1	1382	80.026
ATM3	Crossover_4	1.0-rc12	20100921.093941	staircase	126	1	8	2v5	0.200000	1	1	0	present	1	544	80.029
ATM3	Crossover_4	1.0-rc12	20100921.093944	staircase	127	1	2	2v5	0.000000	1	2	12	present	1	1284	80.030
ATM3	Crossover_4	1.0-rc12	20100921.093949	staircase	128	0	1	orientation	0.412500	1	2	0	absent	1	502	80.028
ATM3	Crossover_4	1.0-rc12	20100921.093952	staircase	129	1	4	orientation	0.450000	1	1	0	present	1	496	80.031
ATM3	Crossover_4	1.0-rc12	20100921.093956	staircase	130	1	1	orientation	0.412500	1	2	0	present	1	543	80.031
ATM3	Crossover_4	1.0-rc12	20100921.094005	staircase	131	1	2	orientation	0.462500	1	1	0	present	1	475	80.028
ATM3	Crossover_4	1.0-rc12	20100921.094009	staircase	132	0	1	2v5	0.212500	1	1	0	absent	1	523	80.028
ATM3	Crossover_4	1.0-rc12	20100921.094012	staircase	133	1	8	2v5	0.012500	1	2	13	absent	0	3493	80.034
ATM3	Crossover_4	1.0-rc12	20100921.094019	staircase	134	1	1	orientation	0.425000	1	2	0	present	1	571	80.030
ATM3	Crossover_4	1.0-rc12	20100921.094022	staircase	135	1	8	orientation	0.475000	1	1	0	present	1	420	80.032
ATM3	Crossover_4	1.0-rc12	20100921.094026	staircase	136	0	4	2v5	0.212500	1	1	0	absent	1	573	80.025
ATM3	Crossover_4	1.0-rc12	20100921.094029	staircase	137	1	8	orientation	0.437500	1	2	0	present	1	496	80.036
ATM3	Crossover_4	1.0-rc12	20100921.094033	staircase	138	0	4	2v5	0.000000	1	2	0	absent	1	718	80.034
ATM3	Crossover_4	1.0-rc12	20100921.094037	staircase	139	1	1	2v5	0.212500	1	1	0	present	1	516	80.024
ATM3	Crossover_4	1.0-rc12	20100921.094040	staircase	140	0	8	orientation	0.487500	1	1	0	absent	1	1146	80.030
ATM3	Crossover_4	1.0-rc12	20100921.094044	staircase	141	1	8	2v5	0.000000	1	2	14	present	1	3824	80.034
ATM3	Crossover_4	1.0-rc12	20100921.094051	staircase	142	1	2	2v5	0.225000	1	1	0	present	1	509	80.036
ATM3	Crossover_4	1.0-rc12	20100921.094055	staircase	143	1	4	orientation	0.450000	1	2	0	present	1	1035	80.032
ATM3	Crossover_4	1.0-rc12	20100921.094059	staircase	144	1	4	2v5	0.012500	1	2	0	present	1	1166	80.034
ATM3	Crossover_4	1.0-rc12	20100921.094103	staircase	145	0	4	orientation	0.487500	1	1	0	absent	1	676	80.027
ATM3	Crossover_4	1.0-rc12	20100921.094107	staircase	146	0	8	orientation	0.462500	1	2	0	absent	1	584	80.027
ATM3	Crossover_4	1.0-rc12	20100921.094110	staircase	147	0	4	orientation	0.487500	1	1	0	absent	1	572	80.024
ATM3	Crossover_4	1.0-rc12	20100921.094114	staircase	148	1	8	orientation	0.462500	1	2	0	present	1	475	80.041
ATM3	Crossover_4	1.0-rc12	20100921.094117	staircase	149	0	8	2v5	0.237500	1	1	7	present	0	1810	80.027
ATM3	Crossover_4	1.0-rc12	20100921.094122	staircase	150	0	2	orientation	0.487500	1	1	0	absent	1	1160	80.035
ATM3	Crossover_4	1.0-rc12	20100921.094126	staircase	151	0	2	2v5	0.025000	1	2	0	absent	1	869	80.029
ATM3	Crossover_4	1.0-rc12	20100921.094130	staircase	152	0	1	2v5	0.175000	1	1	0	absent	1	523	80.035
ATM3	Crossover_4	1.0-rc12	20100921.094134	staircase	153	0	2	orientation	0.475000	1	2	0	absent	1	537	80.037
ATM3	Crossover_4	1.0-rc12	20100921.094137	staircase	154	1	1	2v5	0.025000	1	2	0	present	1	4150	80.022
ATM3	Crossover_4	1.0-rc12	20100921.094145	staircase	155	1	1	orientation	0.487500	1	1	0	present	1	814	80.036
ATM3	Crossover_4	1.0-rc12	20100921.094148	staircase	156	0	1	orientation	0.475000	1	2	0	absent	1	579	80.018
ATM3	Crossover_4	1.0-rc12	20100921.094152	staircase	157	0	8	2v5	0.175000	1	1	0	absent	1	1069	80.028
ATM3	Crossover_4	1.0-rc12	20100921.094156	staircase	158	1	1	orientation	0.500000	1	1	0	present	1	537	80.023
ATM3	Crossover_4	1.0-rc12	20100921.094200	staircase	159	1	4	2v5	0.037500	1	2	0	present	1	592	80.035
ATM3	Crossover_4	1.0-rc12	20100921.094203	staircase	160	1	1	orientation	0.475000	1	2	0	present	1	1034	80.025
ATM3	Crossover_4	1.0-rc12	20100921.094207	staircase	161	0	8	orientation	0.512500	1	1	0	absent	1	537	80.036
ATM3	Crossover_4	1.0-rc12	20100921.094211	staircase	162	1	2	orientation	0.487500	1	2	0	present	1	509	80.019
ATM3	Crossover_4	1.0-rc12	20100921.094214	staircase	163	1	4	2v5	0.175000	1	1	8	present	1	890	80.027
ATM3	Crossover_4	1.0-rc12	20100921.094218	staircase	164	1	8	2v5	0.050000	1	2	0	present	1	647	80.026
ATM3	Crossover_4	1.0-rc12	20100921.094222	staircase	165	1	4	2v5	0.187500	1	1	9	absent	0	571	80.031
ATM3	Crossover_4	1.0-rc12	20100921.094226	staircase	166	0	2	2v5	0.062500	1	2	0	absent	1	945	80.020
ATM3	Crossover_4	1.0-rc12	20100921.094230	staircase	167	1	2	orientation	0.512500	1	1	0	present	1	550	80.031
ATM3	Crossover_4	1.0-rc12	20100921.094233	staircase	168	0	1	orientation	0.500000	1	2	0	absent	1	488	80.020
ATM3	Crossover_4	1.0-rc12	20100921.094237	staircase	169	1	1	2v5	0.137500	1	1	10	present	1	696	80.032
ATM3	Crossover_4	1.0-rc12	20100921.094240	staircase	170	1	2	2v5	0.062500	1	2	0	present	1	558	80.021
ATM3	Crossover_4	1.0-rc12	20100921.094244	staircase	171	0	8	2v5	0.150000	1	1	0	absent	1	592	80.028
ATM3	Crossover_4	1.0-rc12	20100921.094248	staircase	172	1	4	orientation	0.525000	1	1	0	present	1	606	80.020
ATM3	Crossover_4	1.0-rc12	20100921.094251	staircase	173	1	2	2v5	0.075000	1	2	0	present	1	502	80.030
ATM3	Crossover_4	1.0-rc12	20100921.094255	staircase	174	1	1	2v5	0.150000	1	1	0	present	1	523	80.033
ATM3	Crossover_4	1.0-rc12	20100921.094258	staircase	175	0	4	2v5	0.087500	1	2	0	absent	1	517	80.020
ATM3	Crossover_4	1.0-rc12	20100921.094302	staircase	176	1	1	2v5	0.162500	1	1	0	present	1	412	80.029
ATM3	Crossover_4	1.0-rc12	20100921.094305	staircase	177	0	8	2v5	0.087500	1	2	0	absent	1	1001	80.033
ATM3	Crossover_4	1.0-rc12	20100921.094309	staircase	178	0	2	orientation	0.500000	1	2	0	absent	1	551	80.028
ATM3	Crossover_4	1.0-rc12	20100921.094313	staircase	179	1	1	2v5	0.175000	1	1	0	present	1	530	80.036
ATM3	Crossover_4	1.0-rc12	20100921.094316	staircase	180	0	8	orientation	0.537500	1	1	0	absent	1	523	80.023
ATM3	Crossover_4	1.0-rc12	20100921.094439	staircase	181	1	8	2v5	0.087500	1	2	0	present	1	2280	80.032
ATM3	Crossover_4	1.0-rc12	20100921.094444	staircase	182	0	2	2v5	0.187500	1	1	0	absent	1	530	80.024
ATM3	Crossover_4	1.0-rc12	20100921.094448	staircase	183	1	4	2v5	0.100000	1	2	15	absent	0	537	80.025
ATM3	Crossover_4	1.0-rc12	20100921.094451	staircase	184	1	2	2v5	0.187500	1	1	0	present	1	433	80.030
ATM3	Crossover_4	1.0-rc12	20100921.094455	staircase	185	0	1	orientation	0.500000	1	2	0	absent	1	516	80.033
ATM3	Crossover_4	1.0-rc12	20100921.094458	staircase	186	0	2	2v5	0.050000	1	2	0	absent	1	482	80.032
ATM3	Crossover_4	1.0-rc12	20100921.094502	staircase	187	1	1	orientation	0.537500	1	1	0	present	1	523	80.037
ATM3	Crossover_4	1.0-rc12	20100921.094505	staircase	188	1	1	orientation	0.500000	1	2	0	present	1	5471	80.039
ATM3	Crossover_4	1.0-rc12	20100921.094514	staircase	189	1	8	orientation	0.550000	1	1	1	absent	0	668	80.035
ATM3	Crossover_4	1.0-rc12	20100921.094517	staircase	190	1	2	2v5	0.200000	1	1	0	present	1	1977	80.021
ATM3	Crossover_4	1.0-rc12	20100921.094522	staircase	191	0	1	2v5	0.050000	1	2	0	absent	1	578	80.032
ATM3	Crossover_4	1.0-rc12	20100921.094526	staircase	192	0	8	2v5	0.212500	1	1	11	present	0	2068	80.024
ATM3	Crossover_4	1.0-rc12	20100921.094531	staircase	193	1	4	orientation	0.512500	1	2	0	present	1	606	80.023
ATM3	Crossover_4	1.0-rc12	20100921.094535	staircase	194	1	8	2v5	0.050000	1	2	16	present	1	509	80.033
ATM3	Crossover_4	1.0-rc12	20100921.094538	staircase	195	1	2	2v5	0.150000	1	1	0	absent	0	1118	80.033
ATM3	Crossover_4	1.0-rc12	20100921.094542	staircase	196	0	2	2v5	0.062500	1	2	0	absent	1	551	80.029
ATM3	Crossover_4	1.0-rc12	20100921.094546	staircase	197	0	1	2v5	0.100000	1	1	0	absent	1	675	80.031
ATM3	Crossover_4	1.0-rc12	20100921.094550	staircase	198	0	8	orientation	0.500000	1	1	0	absent	1	647	80.035
ATM3	Crossover_4	1.0-rc12	20100921.094553	staircase	199	1	1	2v5	0.062500	1	2	0	present	1	544	80.022
ATM3	Crossover_4	1.0-rc12	20100921.094557	staircase	200	1	2	orientation	0.525000	1	2	0	present	1	511	80.027
ATM3	Crossover_4	1.0-rc12	20100921.094600	staircase	201	0	1	orientation	0.500000	1	1	0	absent	1	440	80.025
ATM3	Crossover_4	1.0-rc12	20100921.094604	staircase	202	1	8	orientation	0.537500	1	2	0	present	1	537	80.039
ATM3	Crossover_4	1.0-rc12	20100921.094607	staircase	203	0	1	orientation	0.500000	1	1	0	absent	1	371	80.026
ATM3	Crossover_4	1.0-rc12	20100921.094611	staircase	204	0	4	2v5	0.100000	1	1	0	absent	1	607	80.027
ATM3	Crossover_4	1.0-rc12	20100921.094614	staircase	205	0	8	2v5	0.075000	1	2	0	absent	1	911	80.026
ATM3	Crossover_4	1.0-rc12	20100921.094618	staircase	206	1	8	2v5	0.100000	1	1	0	absent	0	1078	80.029
ATM3	Crossover_4	1.0-rc12	20100921.094622	staircase	207	0	4	2v5	0.075000	1	2	0	absent	1	703	80.021
ATM3	Crossover_4	1.0-rc12	20100921.094626	staircase	208	0	4	2v5	0.050000	1	1	0	absent	1	655	80.033
ATM3	Crossover_4	1.0-rc12	20100921.094630	staircase	209	0	1	2v5	0.075000	1	2	0	absent	1	447	80.032
ATM3	Crossover_4	1.0-rc12	20100921.094633	staircase	210	1	2	orientation	0.550000	1	2	0	present	1	1062	80.019
ATM3	Crossover_4	1.0-rc12	20100921.094637	staircase	211	0	1	orientation	0.500000	1	1	0	absent	1	842	80.037
ATM3	Crossover_4	1.0-rc12	20100921.094641	staircase	212	0	4	orientation	0.562500	1	2	0	absent	1	551	80.028
ATM3	Crossover_4	1.0-rc12	20100921.094645	staircase	213	1	1	orientation	0.500000	1	1	2	present	1	523	80.026
ATM3	Crossover_4	1.0-rc12	20100921.094648	staircase	214	0	2	orientation	0.562500	1	2	0	absent	1	633	80.024
ATM3	Crossover_4	1.0-rc12	20100921.094652	staircase	215	0	2	orientation	0.512500	1	1	0	absent	1	572	80.021
ATM3	Crossover_4	1.0-rc12	20100921.094656	staircase	216	0	8	orientation	0.562500	1	2	0	absent	1	578	80.022
ATM3	Crossover_4	1.0-rc12	20100921.094659	staircase	217	1	1	orientation	0.512500	1	1	0	present	1	509	80.039
ATM3	Crossover_4	1.0-rc12	20100921.094703	staircase	218	0	8	orientation	0.562500	1	2	0	absent	1	537	80.025
ATM3	Crossover_4	1.0-rc12	20100921.094706	staircase	219	0	4	2v5	0.050000	1	1	0	absent	1	654	80.024
ATM3	Crossover_4	1.0-rc12	20100921.094710	staircase	220	0	1	2v5	0.075000	1	2	0	absent	1	489	80.025
ATM3	Crossover_4	1.0-rc12	20100921.094714	staircase	221	0	1	orientation	0.525000	1	1	0	absent	1	516	80.024
ATM3	Crossover_4	1.0-rc12	20100921.094717	staircase	222	1	8	orientation	0.562500	1	2	0	present	1	468	80.030
ATM3	Crossover_4	1.0-rc12	20100921.094721	staircase	223	1	4	2v5	0.050000	1	1	12	present	1	544	80.024
ATM3	Crossover_4	1.0-rc12	20100921.094724	staircase	224	0	2	orientation	0.525000	1	1	0	absent	1	565	80.020
ATM3	Crossover_4	1.0-rc12	20100921.094728	staircase	225	0	4	orientation	0.575000	1	2	0	absent	1	952	80.033
ATM3	Crossover_4	1.0-rc12	20100921.094732	staircase	226	0	4	orientation	0.525000	1	1	0	absent	1	1070	80.025
ATM3	Crossover_4	1.0-rc12	20100921.094736	staircase	227	1	2	orientation	0.575000	1	2	0	present	1	433	80.032
ATM3	Crossover_4	1.0-rc12	20100921.094739	staircase	228	1	4	2v5	0.075000	1	2	0	present	1	897	80.031
ATM3	Crossover_4	1.0-rc12	20100921.094743	staircase	229	1	1	orientation	0.525000	1	1	0	present	1	551	80.032
ATM3	Crossover_4	1.0-rc12	20100921.094747	staircase	230	0	4	orientation	0.587500	1	2	0	absent	1	419	80.037
ATM3	Crossover_4	1.0-rc12	20100921.094757	staircase	231	1	2	orientation	0.537500	1	1	0	present	1	523	80.029
ATM3	Crossover_4	1.0-rc12	20100921.094800	staircase	232	0	1	2v5	0.062500	1	1	0	absent	1	558	80.022
ATM3	Crossover_4	1.0-rc12	20100921.094804	staircase	233	1	4	orientation	0.587500	1	2	0	present	1	593	80.020
ATM3	Crossover_4	1.0-rc12	20100921.094807	staircase	234	1	1	orientation	0.550000	1	1	0	present	1	530	80.031
ATM3	Crossover_4	1.0-rc12	20100921.094811	staircase	235	0	1	2v5	0.087500	1	2	0	absent	1	1070	80.030
ATM3	Crossover_4	1.0-rc12	20100921.094815	staircase	236	0	2	2v5	0.062500	1	1	0	absent	1	606	80.027
ATM3	Crossover_4	1.0-rc12	20100921.094819	staircase	237	0	1	2v5	0.087500	1	2	0	absent	1	627	80.031
ATM3	Crossover_4	1.0-rc12	20100921.094822	staircase	238	1	4	orientation	0.600000	1	2	0	present	1	509	80.027
ATM3	Crossover_4	1.0-rc12	20100921.094826	staircase	239	1	2	orientation	0.562500	1	1	0	present	1	523	80.030
ATM3	Crossover_4	1.0-rc12	20100921.094829	staircase	240	0	2	2v5	0.062500	1	1	0	absent	1	793	80.027
ATM3	Crossover_4	1.0-rc12	20100921.094833	staircase	241	1	4	orientation	0.612500	1	2	0	present	1	530	80.035
ATM3	Crossover_4	1.0-rc12	20100921.094837	staircase	242	0	8	orientation	0.575000	1	1	0	absent	1	620	80.030
ATM3	Crossover_4	1.0-rc12	20100921.094840	staircase	243	1	1	2v5	0.087500	1	2	0	present	1	495	80.025
ATM3	Crossover_4	1.0-rc12	20100921.094844	staircase	244	0	4	orientation	0.625000	1	2	0	absent	1	647	80.029
ATM3	Crossover_4	1.0-rc12	20100921.094847	staircase	245	1	4	2v5	0.062500	1	1	0	present	1	571	80.041
ATM3	Crossover_4	1.0-rc12	20100921.094851	staircase	246	0	1	2v5	0.100000	1	2	0	absent	1	502	80.033
ATM3	Crossover_4	1.0-rc12	20100921.094855	staircase	247	1	4	orientation	0.575000	1	1	0	present	1	440	80.026
ATM3	Crossover_4	1.0-rc12	20100921.094858	staircase	248	0	2	orientation	0.625000	1	2	0	absent	1	536	80.021
ATM3	Crossover_4	1.0-rc12	20100921.094902	staircase	249	1	8	2v5	0.075000	1	1	0	present	1	516	80.030
ATM3	Crossover_4	1.0-rc12	20100921.094905	staircase	250	1	1	2v5	0.100000	1	2	0	present	1	475	80.034
ATM3	Crossover_4	1.0-rc12	20100921.094909	staircase	251	0	4	2v5	0.087500	1	1	0	absent	1	565	80.026
ATM3	Crossover_4	1.0-rc12	20100921.094912	staircase	252	1	2	2v5	0.112500	1	2	0	present	1	467	80.035
ATM3	Crossover_4	1.0-rc12	20100921.094916	staircase	253	0	8	2v5	0.087500	1	1	0	absent	1	661	80.024
ATM3	Crossover_4	1.0-rc12	20100921.094919	staircase	254	1	4	orientation	0.587500	1	1	0	present	1	509	80.037
ATM3	Crossover_4	1.0-rc12	20100921.094923	staircase	255	0	1	orientation	0.625000	1	2	0	absent	1	482	80.028
ATM3	Crossover_4	1.0-rc12	20100921.094926	staircase	256	1	8	2v5	0.125000	1	2	17	absent	0	993	80.038
ATM3	Crossover_4	1.0-rc12	20100921.094930	staircase	257	1	1	orientation	0.600000	1	1	0	present	1	378	80.031
ATM3	Crossover_4	1.0-rc12	20100921.094934	staircase	258	1	2	orientation	0.625000	1	2	0	present	1	495	80.026
ATM3	Crossover_4	1.0-rc12	20100921.094937	staircase	259	0	1	orientation	0.612500	1	1	0	absent	1	454	80.028
ATM3	Crossover_4	1.0-rc12	20100921.094941	staircase	260	0	1	orientation	0.637500	1	2	0	absent	1	433	80.024
ATM3	Crossover_4	1.0-rc12	20100921.094944	staircase	261	0	4	2v5	0.087500	1	1	0	absent	1	572	80.028
ATM3	Crossover_4	1.0-rc12	20100921.094948	staircase	262	0	2	orientation	0.612500	1	1	0	absent	1	475	80.028
ATM3	Crossover_4	1.0-rc12	20100921.094951	staircase	263	1	2	2v5	0.075000	1	2	18	present	1	482	80.032
ATM3	Crossover_4	1.0-rc12	20100921.094955	staircase	264	1	8	orientation	0.637500	1	2	0	present	1	419	80.032
ATM3	Crossover_4	1.0-rc12	20100921.094958	staircase	265	1	2	2v5	0.087500	1	1	0	present	1	1372	80.025
ATM3	Crossover_4	1.0-rc12	20100921.095003	staircase	266	1	1	orientation	0.612500	1	1	0	present	1	497	80.035
ATM3	Crossover_4	1.0-rc12	20100921.095006	staircase	267	1	1	orientation	0.650000	1	2	0	present	1	627	80.029
ATM3	Crossover_4	1.0-rc12	20100921.095010	staircase	268	0	2	orientation	0.625000	1	1	0	absent	1	558	80.028
ATM3	Crossover_4	1.0-rc12	20100921.095013	staircase	269	1	8	orientation	0.662500	1	2	0	present	1	524	80.026
ATM3	Crossover_4	1.0-rc12	20100921.095017	staircase	270	1	8	orientation	0.625000	1	1	0	present	1	440	80.028
ATM3	Crossover_4	1.0-rc12	20100921.095020	staircase	271	1	2	2v5	0.087500	1	2	0	present	1	1821	80.037
ATM3	Crossover_4	1.0-rc12	20100921.095025	staircase	272	1	4	2v5	0.100000	1	1	0	present	1	712	80.034
ATM3	Crossover_4	1.0-rc12	20100921.095029	staircase	273	0	4	orientation	0.675000	1	2	0	absent	1	1113	80.028
ATM3	Crossover_4	1.0-rc12	20100921.095033	staircase	274	1	1	orientation	0.637500	1	1	0	present	1	829	80.021
ATM3	Crossover_4	1.0-rc12	20100921.095037	staircase	275	1	1	2v5	0.100000	1	2	0	present	1	1959	80.033
ATM3	Crossover_4	1.0-rc12	20100921.095042	staircase	276	0	8	orientation	0.675000	1	2	0	absent	1	578	80.032
ATM3	Crossover_4	1.0-rc12	20100921.095045	staircase	277	1	2	orientation	0.650000	1	1	0	present	1	426	80.028
ATM3	Crossover_4	1.0-rc12	20100921.095049	staircase	278	1	2	2v5	0.112500	1	1	0	present	1	467	80.026
ATM3	Crossover_4	1.0-rc12	20100921.095052	staircase	279	1	8	orientation	0.675000	1	2	0	present	1	461	80.026
ATM3	Crossover_4	1.0-rc12	20100921.095056	staircase	280	0	4	orientation	0.662500	1	1	0	absent	1	544	80.033
ATM3	Crossover_4	1.0-rc12	20100921.095119	staircase	281	0	8	2v5	0.112500	1	2	0	absent	1	849	80.033
ATM3	Crossover_4	1.0-rc12	20100921.095122	staircase	282	1	8	2v5	0.125000	1	1	13	absent	0	1111	80.027
ATM3	Crossover_4	1.0-rc12	20100921.095127	staircase	283	0	2	orientation	0.687500	1	2	0	absent	1	634	80.031
ATM3	Crossover_4	1.0-rc12	20100921.095130	staircase	284	1	4	orientation	0.662500	1	1	0	present	1	516	80.035
ATM3	Crossover_4	1.0-rc12	20100921.095134	staircase	285	0	4	2v5	0.112500	1	2	0	absent	1	772	80.029
ATM3	Crossover_4	1.0-rc12	20100921.095137	staircase	286	1	4	2v5	0.075000	1	1	14	present	1	675	80.029
ATM3	Crossover_4	1.0-rc12	20100921.095141	staircase	287	1	1	2v5	0.112500	1	2	0	present	1	579	80.026
ATM3	Crossover_4	1.0-rc12	20100921.095145	staircase	288	1	8	2v5	0.087500	1	1	15	absent	0	565	80.032
ATM3	Crossover_4	1.0-rc12	20100921.095148	staircase	289	0	1	2v5	0.125000	1	2	0	absent	1	994	80.038
ATM3	Crossover_4	1.0-rc12	20100921.095152	staircase	290	0	8	2v5	0.037500	1	1	0	absent	1	1326	80.033
ATM3	Crossover_4	1.0-rc12	20100921.095157	staircase	291	1	8	orientation	0.687500	1	2	0	present	1	509	80.022
ATM3	Crossover_4	1.0-rc12	20100921.095200	staircase	292	0	8	2v5	0.125000	1	2	0	absent	1	578	80.027
ATM3	Crossover_4	1.0-rc12	20100921.095204	staircase	293	0	4	2v5	0.037500	1	1	0	present	0	1505	80.024
ATM3	Crossover_4	1.0-rc12	20100921.095208	staircase	294	0	4	2v5	0.125000	1	2	0	absent	1	495	80.028
ATM3	Crossover_4	1.0-rc12	20100921.095212	staircase	295	1	4	orientation	0.675000	1	1	0	present	1	620	80.024
ATM3	Crossover_4	1.0-rc12	20100921.095215	staircase	296	0	8	orientation	0.700000	1	2	0	absent	1	509	80.033
ATM3	Crossover_4	1.0-rc12	20100921.095219	staircase	297	1	8	2v5	0.000000	1	1	16	present	1	558	80.027
ATM3	Crossover_4	1.0-rc12	20100921.095222	staircase	298	0	4	orientation	0.687500	1	1	0	absent	1	606	80.031
ATM3	Crossover_4	1.0-rc12	20100921.095226	staircase	299	0	1	orientation	0.700000	1	2	0	absent	1	474	80.028
ATM3	Crossover_4	1.0-rc12	20100921.095229	staircase	300	0	2	2v5	0.125000	1	2	19	present	0	558	80.028
ATM3	Crossover_4	1.0-rc12	20100921.095233	staircase	301	0	4	orientation	0.687500	1	1	0	absent	1	524	80.023
ATM3	Crossover_4	1.0-rc12	20100921.095237	staircase	302	0	2	2v5	0.012500	1	1	0	absent	1	731	80.024
ATM3	Crossover_4	1.0-rc12	20100921.095240	staircase	303	1	4	2v5	0.062500	1	2	20	present	1	551	80.029
ATM3	Crossover_4	1.0-rc12	20100921.095244	staircase	304	0	2	2v5	0.012500	1	1	0	absent	1	495	80.031
ATM3	Crossover_4	1.0-rc12	20100921.095247	staircase	305	1	4	orientation	0.700000	1	2	0	present	1	475	80.032
ATM3	Crossover_4	1.0-rc12	20100921.095251	staircase	306	1	4	2v5	0.012500	1	1	17	absent	0	392	80.035
ATM3	Crossover_4	1.0-rc12	20100921.095254	staircase	307	0	8	orientation	0.687500	1	1	0	absent	1	592	80.032
ATM3	Crossover_4	1.0-rc12	20100921.095258	staircase	308	0	8	2v5	0.000000	1	1	0	present	0	593	80.028
ATM3	Crossover_4	1.0-rc12	20100921.095302	staircase	309	1	8	orientation	0.712500	1	2	1	absent	0	440	80.024
ATM3	Crossover_4	1.0-rc12	20100921.095305	staircase	310	0	2	orientation	0.687500	1	1	0	absent	1	585	80.029
ATM3	Crossover_4	1.0-rc12	20100921.095309	staircase	311	1	2	orientation	0.662500	1	2	0	absent	0	461	80.031
ATM3	Crossover_4	1.0-rc12	20100921.095312	staircase	312	0	8	orientation	0.687500	1	1	0	absent	1	1747	80.028
ATM3	Crossover_4	1.0-rc12	20100921.095317	staircase	313	0	2	2v5	0.000000	1	1	0	absent	1	1284	80.039
ATM3	Crossover_4	1.0-rc12	20100921.095321	staircase	314	1	8	2v5	0.000000	1	1	0	absent	0	655	80.034
ATM3	Crossover_4	1.0-rc12	20100921.095325	staircase	315	1	1	2v5	0.000000	1	1	18	present	1	1174	80.034
ATM3	Crossover_4	1.0-rc12	20100921.095329	staircase	316	0	2	orientation	0.612500	1	2	0	absent	1	537	80.035
ATM3	Crossover_4	1.0-rc12	20100921.095333	staircase	317	0	4	orientation	0.687500	1	1	0	absent	1	516	80.021
ATM3	Crossover_4	1.0-rc12	20100921.095336	staircase	318	0	8	2v5	0.012500	1	1	0	absent	1	917	80.027
ATM3	Crossover_4	1.0-rc12	20100921.095340	staircase	319	0	1	2v5	0.012500	1	1	0	absent	1	523	80.029
ATM3	Crossover_4	1.0-rc12	20100921.095344	staircase	320	1	8	orientation	0.612500	1	2	2	present	1	993	80.021
ATM3	Crossover_4	1.0-rc12	20100921.095348	staircase	321	1	8	2v5	0.012500	1	1	0	present	1	537	80.034
ATM3	Crossover_4	1.0-rc12	20100921.095351	staircase	322	1	1	orientation	0.687500	1	1	3	absent	0	744	80.034
ATM3	Crossover_4	1.0-rc12	20100921.095355	staircase	323	0	4	2v5	0.025000	1	1	0	absent	1	814	80.029
ATM3	Crossover_4	1.0-rc12	20100921.095359	staircase	324	1	8	2v5	0.025000	1	1	0	present	1	509	80.037
ATM3	Crossover_4	1.0-rc12	20100921.095402	staircase	325	1	8	orientation	0.625000	1	2	0	present	1	634	80.030
ATM3	Crossover_4	1.0-rc12	20100921.095406	staircase	326	0	1	orientation	0.637500	1	1	0	absent	1	454	80.024
ATM3	Crossover_4	1.0-rc12	20100921.095409	staircase	327	1	8	2v5	0.037500	1	1	19	absent	0	1486	80.028
ATM3	Crossover_4	1.0-rc12	20100921.095414	staircase	328	0	8	2v5	0.000000	1	1	0	present	0	619	80.026
ATM3	Crossover_4	1.0-rc12	20100921.095418	staircase	329	0	8	orientation	0.637500	1	2	0	absent	1	1104	80.031
ATM3	Crossover_4	1.0-rc12	20100921.095422	staircase	330	1	2	orientation	0.637500	1	1	4	present	1	613	80.033
ATM3	Crossover_4	1.0-rc12	20100921.095430	staircase	331	0	1	2v5	0.000000	1	1	0	absent	1	482	80.024
ATM3	Crossover_4	1.0-rc12	20100921.095433	staircase	332	1	4	orientation	0.637500	1	2	3	absent	0	669	80.019
ATM3	Crossover_4	1.0-rc12	20100921.095437	staircase	333	1	4	2v5	0.000000	1	1	20	present	1	1381	80.029
ATM3	Crossover_4	1.0-rc12	20100921.095441	staircase	334	0	1	2v5	0.060000	1	0	0	absent	1	503	80.030
ATM3	Crossover_4	1.0-rc12	20100921.095445	staircase	335	1	1	2v5	0.060000	1	0	0	present	1	585	80.023
ATM3	Crossover_4	1.0-rc12	20100921.095448	staircase	336	0	4	2v5	0.060000	1	0	0	absent	1	758	80.031
ATM3	Crossover_4	1.0-rc12	20100921.095452	staircase	337	1	4	orientation	0.650000	1	1	0	present	1	495	80.039
ATM3	Crossover_4	1.0-rc12	20100921.095456	staircase	338	0	4	orientation	0.587500	1	2	0	absent	1	592	80.027
ATM3	Crossover_4	1.0-rc12	20100921.095459	staircase	339	0	2	orientation	0.662500	1	1	0	absent	1	558	80.025
ATM3	Crossover_4	1.0-rc12	20100921.095503	staircase	340	0	8	2v5	0.060000	1	0	0	absent	1	1161	80.028
ATM3	Crossover_4	1.0-rc12	20100921.095507	staircase	341	0	8	2v5	0.060000	1	0	0	absent	1	1064	80.030
ATM3	Crossover_4	1.0-rc12	20100921.095511	staircase	342	1	4	2v5	0.060000	1	0	0	present	1	828	80.022
ATM3	Crossover_4	1.0-rc12	20100921.095515	staircase	343	0	1	orientation	0.587500	1	2	0	absent	1	433	80.028
ATM3	Crossover_4	1.0-rc12	20100921.095518	staircase	344	1	2	2v5	0.060000	1	0	0	present	1	502	80.031
ATM3	Crossover_4	1.0-rc12	20100921.095522	staircase	345	1	1	2v5	0.060000	1	0	0	present	1	551	80.034
ATM3	Crossover_4	1.0-rc12	20100921.095525	staircase	346	1	8	2v5	0.060000	1	0	0	present	1	496	80.025
ATM3	Crossover_4	1.0-rc12	20100921.095529	staircase	347	0	1	orientation	0.662500	1	1	0	absent	1	447	80.033
ATM3	Crossover_4	1.0-rc12	20100921.095532	staircase	348	0	8	2v5	0.060000	1	0	0	absent	1	980	80.025
ATM3	Crossover_4	1.0-rc12	20100921.095536	staircase	349	1	1	orientation	0.587500	1	2	4	present	1	834	80.030
ATM3	Crossover_4	1.0-rc12	20100921.095540	staircase	350	0	1	orientation	0.662500	1	1	0	absent	1	489	80.035
ATM3	Crossover_4	1.0-rc12	20100921.095544	staircase	351	1	2	orientation	0.600000	1	2	0	present	1	1007	80.037
ATM3	Crossover_4	1.0-rc12	20100921.095548	staircase	352	1	2	2v5	0.060000	1	0	0	present	1	502	80.029
ATM3	Crossover_4	1.0-rc12	20100921.095551	staircase	353	1	2	orientation	0.662500	1	1	0	present	1	1036	80.031
ATM3	Crossover_4	1.0-rc12	20100921.095555	staircase	354	1	2	orientation	0.612500	1	2	0	present	1	543	80.029
ATM3	Crossover_4	1.0-rc12	20100921.095559	staircase	355	0	4	2v5	0.060000	1	0	0	absent	1	607	80.030
ATM3	Crossover_4	1.0-rc12	20100921.095603	staircase	356	1	8	orientation	0.675000	1	1	0	present	1	710	80.031
ATM3	Crossover_4	1.0-rc12	20100921.095606	staircase	357	0	8	2v5	0.060000	1	0	0	absent	1	1692	80.024
ATM3	Crossover_4	1.0-rc12	20100921.095611	staircase	358	0	4	orientation	0.625000	1	2	0	absent	1	3715	80.027
ATM3	Crossover_4	1.0-rc12	20100921.095618	staircase	359	1	4	2v5	0.060000	1	0	0	present	1	613	80.028
ATM3	Crossover_4	1.0-rc12	20100921.095621	staircase	360	1	4	orientation	0.687500	1	1	0	present	1	468	80.033
ATM3	Crossover_4	1.0-rc12	20100921.095625	staircase	361	0	2	2v5	0.060000	1	0	0	absent	1	531	80.029
ATM3	Crossover_4	1.0-rc12	20100921.095628	staircase	362	0	4	2v5	0.060000	1	0	0	absent	1	502	80.019
ATM3	Crossover_4	1.0-rc12	20100921.095632	staircase	363	0	1	orientation	0.625000	1	2	0	absent	1	564	80.035
ATM3	Crossover_4	1.0-rc12	20100921.095636	staircase	364	1	8	2v5	0.060000	1	0	0	absent	0	564	80.030
ATM3	Crossover_4	1.0-rc12	20100921.095639	staircase	365	1	4	2v5	0.060000	1	0	0	present	1	537	80.034
ATM3	Crossover_4	1.0-rc12	20100921.095643	staircase	366	0	8	2v5	0.060000	1	0	0	absent	1	592	80.027
ATM3	Crossover_4	1.0-rc12	20100921.095646	staircase	367	0	2	2v5	0.060000	1	0	0	present	0	1035	80.038
ATM3	Crossover_4	1.0-rc12	20100921.095650	staircase	368	1	2	2v5	0.060000	1	0	0	present	1	592	80.025
ATM3	Crossover_4	1.0-rc12	20100921.095654	staircase	369	0	8	orientation	0.700000	1	1	0	absent	1	468	80.033
ATM3	Crossover_4	1.0-rc12	20100921.095657	staircase	370	1	4	2v5	0.060000	1	0	0	present	1	627	80.029
ATM3	Crossover_4	1.0-rc12	20100921.095701	staircase	371	0	2	orientation	0.625000	1	2	0	absent	1	558	80.036
ATM3	Crossover_4	1.0-rc12	20100921.095705	staircase	372	0	4	orientation	0.700000	1	1	0	absent	1	828	80.034
ATM3	Crossover_4	1.0-rc12	20100921.095708	staircase	373	0	1	2v5	0.060000	1	0	0	absent	1	751	80.023
ATM3	Crossover_4	1.0-rc12	20100921.095712	staircase	374	1	4	orientation	0.625000	1	2	0	present	1	1050	80.038
ATM3	Crossover_4	1.0-rc12	20100921.095716	staircase	375	1	8	orientation	0.700000	1	1	0	present	1	599	80.036
ATM3	Crossover_4	1.0-rc12	20100921.095720	staircase	376	0	1	orientation	0.637500	1	2	0	absent	1	585	80.032
ATM3	Crossover_4	1.0-rc12	20100921.095724	staircase	377	1	1	orientation	0.712500	1	1	0	present	1	745	80.021
ATM3	Crossover_4	1.0-rc12	20100921.095727	staircase	378	0	8	orientation	0.637500	1	2	0	absent	1	489	80.030
ATM3	Crossover_4	1.0-rc12	20100921.095731	staircase	379	0	2	2v5	0.060000	1	0	0	absent	1	648	80.029
ATM3	Crossover_4	1.0-rc12	20100921.095734	staircase	380	1	2	orientation	0.725000	1	1	0	present	1	675	80.025
ATM3	Crossover_4	1.0-rc12	20100921.095744	staircase	381	1	4	2v5	0.060000	1	0	0	present	1	620	80.027
ATM3	Crossover_4	1.0-rc12	20100921.095747	staircase	382	0	4	orientation	0.637500	1	2	0	absent	1	510	80.027
ATM3	Crossover_4	1.0-rc12	20100921.095751	staircase	383	1	1	2v5	0.060000	1	0	0	present	1	537	80.021
ATM3	Crossover_4	1.0-rc12	20100921.095754	staircase	384	0	2	orientation	0.737500	1	1	0	absent	1	592	80.032
ATM3	Crossover_4	1.0-rc12	20100921.095758	staircase	385	0	2	orientation	0.637500	1	2	0	absent	1	640	80.029
ATM3	Crossover_4	1.0-rc12	20100921.095802	staircase	386	1	8	orientation	0.737500	1	1	5	absent	0	503	80.022
ATM3	Crossover_4	1.0-rc12	20100921.095805	staircase	387	0	2	2v5	0.060000	1	0	0	absent	1	683	80.037
ATM3	Crossover_4	1.0-rc12	20100921.095809	staircase	388	1	1	2v5	0.060000	1	0	0	present	1	821	80.027
ATM3	Crossover_4	1.0-rc12	20100921.095813	staircase	389	1	2	2v5	0.060000	1	0	0	present	1	523	80.033
ATM3	Crossover_4	1.0-rc12	20100921.095816	staircase	390	0	4	orientation	0.637500	1	2	0	absent	1	662	80.027
ATM3	Crossover_4	1.0-rc12	20100921.095820	staircase	391	0	2	orientation	0.687500	1	1	0	absent	1	787	80.029
ATM3	Crossover_4	1.0-rc12	20100921.095824	staircase	392	0	1	2v5	0.060000	1	0	0	absent	1	655	80.019
ATM3	Crossover_4	1.0-rc12	20100921.095827	staircase	393	1	1	orientation	0.637500	1	2	0	present	1	772	80.036
ATM3	Crossover_4	1.0-rc12	20100921.095831	staircase	394	1	8	orientation	0.687500	1	1	6	present	1	1083	80.032
ATM3	Crossover_4	1.0-rc12	20100921.095835	staircase	395	1	1	2v5	0.060000	1	0	0	present	1	981	80.028
ATM3	Crossover_4	1.0-rc12	20100921.095839	staircase	396	1	2	orientation	0.650000	1	2	0	present	1	896	80.035
ATM3	Crossover_4	1.0-rc12	20100921.095843	staircase	397	1	1	orientation	0.700000	1	1	0	present	1	620	80.019
ATM3	Crossover_4	1.0-rc12	20100921.095847	staircase	398	1	8	2v5	0.060000	1	0	0	present	1	510	80.032
ATM3	Crossover_4	1.0-rc12	20100921.095850	staircase	399	0	1	2v5	0.060000	1	0	0	absent	1	440	80.025
ATM3	Crossover_4	1.0-rc12	20100921.095854	staircase	400	1	2	2v5	0.060000	1	0	0	present	1	647	80.033
ATM3	Crossover_4	1.0-rc12	20100921.095858	staircase	401	1	4	orientation	0.662500	1	2	0	present	1	1140	80.030
ATM3	Crossover_4	1.0-rc12	20100921.095902	staircase	402	0	2	orientation	0.712500	1	1	0	absent	1	565	80.022
ATM3	Crossover_4	1.0-rc12	20100921.095905	staircase	403	0	8	orientation	0.675000	1	2	0	absent	1	606	80.025
ATM3	Crossover_4	1.0-rc12	20100921.095909	staircase	404	0	1	2v5	0.060000	1	0	0	absent	1	690	80.041
ATM3	Crossover_4	1.0-rc12	20100921.095913	staircase	405	0	2	2v5	0.060000	1	0	0	absent	1	1132	80.029
ATM3	Crossover_4	1.0-rc12	20100921.095917	staircase	406	0	2	2v5	0.060000	1	0	0	absent	1	820	80.026
ATM3	Crossover_4	1.0-rc12	20100921.095921	staircase	407	0	2	2v5	0.060000	1	0	0	absent	1	593	80.027
ATM3	Crossover_4	1.0-rc12	20100921.095924	staircase	408	1	4	2v5	0.060000	1	0	0	present	1	599	80.027
ATM3	Crossover_4	1.0-rc12	20100921.095928	staircase	409	0	2	orientation	0.712500	1	1	0	absent	1	544	80.025
ATM3	Crossover_4	1.0-rc12	20100921.095931	staircase	410	1	1	orientation	0.675000	1	2	5	absent	0	544	80.032
ATM3	Crossover_4	1.0-rc12	20100921.095935	staircase	411	0	1	2v5	0.060000	1	0	0	absent	1	509	80.029
ATM3	Crossover_4	1.0-rc12	20100921.095939	staircase	412	0	1	orientation	0.712500	1	1	0	absent	1	586	80.032
ATM3	Crossover_4	1.0-rc12	20100921.095942	staircase	413	0	1	orientation	0.625000	1	2	0	absent	1	571	80.019
ATM3	Crossover_4	1.0-rc12	20100921.095946	staircase	414	0	8	2v5	0.060000	1	0	0	present	0	704	80.021
ATM3	Crossover_4	1.0-rc12	20100921.095949	staircase	415	0	4	2v5	0.060000	1	0	0	absent	1	613	80.027
ATM3	Crossover_4	1.0-rc12	20100921.095953	staircase	416	0	1	orientation	0.712500	1	1	0	absent	1	454	80.035
ATM3	Crossover_4	1.0-rc12	20100921.095957	staircase	417	0	8	orientation	0.625000	1	2	0	absent	1	530	80.034
ATM3	Crossover_4	1.0-rc12	20100921.100000	staircase	418	1	8	orientation	0.712500	1	1	7	absent	0	628	80.030
ATM3	Crossover_4	1.0-rc12	20100921.100004	staircase	419	1	1	orientation	0.625000	1	2	6	present	1	855	80.030
ATM3	Crossover_4	1.0-rc12	20100921.100008	staircase	420	0	8	orientation	0.662500	1	1	0	absent	1	502	80.026
ATM3	Crossover_4	1.0-rc12	20100921.100011	staircase	421	0	4	orientation	0.637500	1	2	0	absent	1	468	80.035
ATM3	Crossover_4	1.0-rc12	20100921.100015	staircase	422	1	1	2v5	0.060000	1	0	0	present	1	481	80.030
ATM3	Crossover_4	1.0-rc12	20100921.100018	staircase	423	0	1	orientation	0.662500	1	1	0	absent	1	420	80.029
ATM3	Crossover_4	1.0-rc12	20100921.100022	staircase	424	0	2	orientation	0.637500	1	2	0	absent	1	509	80.020
ATM3	Crossover_4	1.0-rc12	20100921.100025	staircase	425	1	1	2v5	0.060000	1	0	0	present	1	502	80.028
ATM3	Crossover_4	1.0-rc12	20100921.100029	staircase	426	1	2	orientation	0.662500	1	1	8	present	1	828	80.023
ATM3	Crossover_4	1.0-rc12	20100921.100032	staircase	427	1	2	2v5	0.060000	1	0	0	present	1	551	80.033
ATM3	Crossover_4	1.0-rc12	20100921.100036	staircase	428	1	4	2v5	0.060000	1	0	0	present	1	821	80.021
ATM3	Crossover_4	1.0-rc12	20100921.100040	staircase	429	1	4	orientation	0.637500	1	2	0	present	1	516	80.029
ATM3	Crossover_4	1.0-rc12	20100921.100043	staircase	430	1	8	orientation	0.675000	1	1	0	present	1	537	80.025
ATM3	Crossover_4	1.0-rc12	20100921.100119	staircase	431	0	4	2v5	0.060000	1	0	0	absent	1	1880	80.024
ATM3	Crossover_4	1.0-rc12	20100921.100124	staircase	432	1	8	2v5	0.060000	1	0	0	present	1	731	80.030
ATM3	Crossover_4	1.0-rc12	20100921.100127	staircase	433	1	2	2v5	0.060000	1	0	0	present	1	682	80.024
ATM3	Crossover_4	1.0-rc12	20100921.100131	staircase	434	0	1	2v5	0.060000	1	0	0	absent	1	509	80.035
ATM3	Crossover_4	1.0-rc12	20100921.100135	staircase	435	0	8	orientation	0.650000	1	2	0	absent	1	606	80.032
ATM3	Crossover_4	1.0-rc12	20100921.100138	staircase	436	1	8	2v5	0.060000	1	0	0	present	1	745	80.032
ATM3	Crossover_4	1.0-rc12	20100921.100142	staircase	437	0	2	orientation	0.687500	1	1	0	absent	1	495	80.033
ATM3	Crossover_4	1.0-rc12	20100921.100146	staircase	438	0	4	2v5	0.060000	1	0	0	present	0	523	80.025
ATM3	Crossover_4	1.0-rc12	20100921.100149	staircase	439	1	4	orientation	0.650000	1	2	0	present	1	592	80.034
ATM3	Crossover_4	1.0-rc12	20100921.100153	staircase	440	0	2	2v5	0.060000	1	0	0	absent	1	717	80.024
ATM3	Crossover_4	1.0-rc12	20100921.100156	staircase	441	1	8	orientation	0.687500	1	1	0	present	1	585	80.028
ATM3	Crossover_4	1.0-rc12	20100921.100200	staircase	442	0	8	orientation	0.662500	1	2	0	absent	1	579	80.031
ATM3	Crossover_4	1.0-rc12	20100921.100204	staircase	443	1	4	orientation	0.700000	1	1	0	present	1	551	80.036
ATM3	Crossover_4	1.0-rc12	20100921.100207	staircase	444	0	2	2v5	0.060000	1	0	0	present	0	724	80.027
ATM3	Crossover_4	1.0-rc12	20100921.100211	staircase	445	1	1	orientation	0.662500	1	2	0	present	1	1083	80.032
ATM3	Crossover_4	1.0-rc12	20100921.100215	staircase	446	0	4	orientation	0.712500	1	1	0	absent	1	503	80.032
ATM3	Crossover_4	1.0-rc12	20100921.100219	staircase	447	1	1	2v5	0.060000	1	0	0	present	1	530	80.021
ATM3	Crossover_4	1.0-rc12	20100921.100222	staircase	448	1	2	2v5	0.060000	1	0	0	present	1	634	80.036
ATM3	Crossover_4	1.0-rc12	20100921.100226	staircase	449	0	4	orientation	0.675000	1	2	0	absent	1	586	80.031
ATM3	Crossover_4	1.0-rc12	20100921.100229	staircase	450	1	8	orientation	0.712500	1	1	0	present	1	647	80.026
ATM3	Crossover_4	1.0-rc12	20100921.100233	staircase	451	0	1	2v5	0.060000	1	0	0	absent	1	730	80.019
ATM3	Crossover_4	1.0-rc12	20100921.100237	staircase	452	0	2	2v5	0.060000	1	0	0	absent	1	523	80.027
ATM3	Crossover_4	1.0-rc12	20100921.100240	staircase	453	0	8	2v5	0.060000	1	0	0	present	0	869	80.033
ATM3	Crossover_4	1.0-rc12	20100921.100244	staircase	454	1	2	2v5	0.060000	1	0	0	present	1	641	80.037
ATM3	Crossover_4	1.0-rc12	20100921.100248	staircase	455	1	2	orientation	0.675000	1	2	0	present	1	862	80.034
ATM3	Crossover_4	1.0-rc12	20100921.100252	staircase	456	0	8	orientation	0.725000	1	1	0	absent	1	682	80.025
ATM3	Crossover_4	1.0-rc12	20100921.100256	staircase	457	0	2	orientation	0.687500	1	2	7	present	0	806	80.035
ATM3	Crossover_4	1.0-rc12	20100921.100259	staircase	458	1	8	2v5	0.060000	1	0	0	absent	0	1153	80.031
ATM3	Crossover_4	1.0-rc12	20100921.100304	staircase	459	1	1	orientation	0.725000	1	1	0	present	1	620	80.036
ATM3	Crossover_4	1.0-rc12	20100921.100307	staircase	460	1	1	2v5	0.060000	1	0	0	present	1	454	80.036
ATM3	Crossover_4	1.0-rc12	20100921.100311	staircase	461	1	2	orientation	0.625000	1	2	8	present	1	516	80.027
ATM3	Crossover_4	1.0-rc12	20100921.100314	staircase	462	0	8	2v5	0.060000	1	0	0	present	0	939	80.026
ATM3	Crossover_4	1.0-rc12	20100921.100318	staircase	463	0	4	2v5	0.060000	1	0	0	absent	1	585	80.030
ATM3	Crossover_4	1.0-rc12	20100921.100322	staircase	464	0	1	2v5	0.060000	1	0	0	absent	1	489	80.033
ATM3	Crossover_4	1.0-rc12	20100921.100325	staircase	465	0	4	orientation	0.737500	1	1	0	absent	1	655	80.028
ATM3	Crossover_4	1.0-rc12	20100921.100329	staircase	466	1	2	2v5	0.060000	1	0	0	present	1	558	80.035
ATM3	Crossover_4	1.0-rc12	20100921.100333	staircase	467	0	8	orientation	0.637500	1	2	0	absent	1	627	80.035
ATM3	Crossover_4	1.0-rc12	20100921.100336	staircase	468	1	1	orientation	0.737500	1	1	0	present	1	1174	80.024
ATM3	Crossover_4	1.0-rc12	20100921.100340	staircase	469	0	4	2v5	0.060000	1	0	0	absent	1	641	80.029
ATM3	Crossover_4	1.0-rc12	20100921.100344	staircase	470	1	8	orientation	0.637500	1	2	0	present	1	592	80.029
ATM3	Crossover_4	1.0-rc12	20100921.100348	staircase	471	1	2	orientation	0.750000	1	1	9	absent	0	793	80.032
ATM3	Crossover_4	1.0-rc12	20100921.100351	staircase	472	0	4	2v5	0.060000	1	0	0	absent	1	758	80.024
ATM3	Crossover_4	1.0-rc12	20100921.100355	staircase	473	0	8	2v5	0.060000	1	0	0	absent	1	772	80.027
ATM3	Crossover_4	1.0-rc12	20100921.100359	staircase	474	1	8	2v5	0.060000	1	0	0	present	1	537	80.027
ATM3	Crossover_4	1.0-rc12	20100921.100403	staircase	475	1	4	orientation	0.650000	1	2	0	present	1	496	80.036
ATM3	Crossover_4	1.0-rc12	20100921.100406	staircase	476	1	4	2v5	0.060000	1	0	0	absent	0	765	80.022
ATM3	Crossover_4	1.0-rc12	20100921.100410	staircase	477	1	4	2v5	0.060000	1	0	0	present	1	474	80.041
ATM3	Crossover_4	1.0-rc12	20100921.100413	staircase	478	1	1	2v5	0.060000	1	0	0	present	1	606	80.023
ATM3	Crossover_4	1.0-rc12	20100921.100417	staircase	479	1	4	orientation	0.700000	1	1	10	present	1	585	80.029
ATM3	Crossover_4	1.0-rc12	20100921.100421	staircase	480	0	4	orientation	0.662500	1	2	0	absent	1	578	80.032
ATM3	Crossover_4	1.0-rc12	20100921.100431	staircase	481	1	2	2v5	0.060000	1	0	0	present	1	557	80.022
ATM3	Crossover_4	1.0-rc12	20100921.100435	staircase	482	0	4	orientation	0.712500	1	1	0	absent	1	537	80.031
ATM3	Crossover_4	1.0-rc12	20100921.100438	staircase	483	1	8	2v5	0.060000	1	0	0	present	1	551	80.026
ATM3	Crossover_4	1.0-rc12	20100921.100442	staircase	484	1	2	orientation	0.662500	1	2	0	present	1	675	80.033
ATM3	Crossover_4	1.0-rc12	20100921.100445	staircase	485	0	8	orientation	0.712500	1	1	0	absent	1	613	80.036
ATM3	Crossover_4	1.0-rc12	20100921.100449	staircase	486	0	2	orientation	0.675000	1	2	0	absent	1	579	80.025
ATM3	Crossover_4	1.0-rc12	20100921.100453	staircase	487	0	8	orientation	0.712500	1	1	0	absent	1	599	80.031
ATM3	Crossover_4	1.0-rc12	20100921.100456	staircase	488	1	8	2v5	0.060000	1	0	0	present	1	495	80.021
ATM3	Crossover_4	1.0-rc12	20100921.100500	staircase	489	1	8	orientation	0.675000	1	2	0	present	1	883	80.034
ATM3	Crossover_4	1.0-rc12	20100921.100504	staircase	490	1	2	orientation	0.712500	1	1	11	absent	0	1187	80.024
ATM3	Crossover_4	1.0-rc12	20100921.100508	staircase	491	0	8	2v5	0.060000	1	0	0	present	0	578	80.023
ATM3	Crossover_4	1.0-rc12	20100921.100511	staircase	492	0	8	orientation	0.687500	1	2	0	absent	1	1001	80.021
ATM3	Crossover_4	1.0-rc12	20100921.100515	staircase	493	0	1	2v5	0.060000	1	0	0	absent	1	641	80.032
ATM3	Crossover_4	1.0-rc12	20100921.100519	staircase	494	1	4	2v5	0.060000	1	0	0	present	1	489	80.026
ATM3	Crossover_4	1.0-rc12	20100921.100523	staircase	495	1	8	2v5	0.060000	1	0	0	present	1	516	80.025
ATM3	Crossover_4	1.0-rc12	20100921.100526	staircase	496	1	4	2v5	0.060000	1	0	0	present	1	537	80.050
ATM3	Crossover_4	1.0-rc12	20100921.100530	staircase	497	1	2	2v5	0.060000	1	0	0	present	1	655	80.027
ATM3	Crossover_4	1.0-rc12	20100921.100534	staircase	498	0	8	orientation	0.662500	1	1	0	absent	1	578	80.037
ATM3	Crossover_4	1.0-rc12	20100921.100537	staircase	499	1	1	orientation	0.687500	1	2	0	present	1	828	80.037
ATM3	Crossover_4	1.0-rc12	20100921.100541	staircase	500	0	1	orientation	0.662500	1	1	0	absent	1	606	80.028
ATM3	Crossover_4	1.0-rc12	20100921.100545	staircase	501	0	4	2v5	0.060000	1	0	0	absent	1	1237	80.026
ATM3	Crossover_4	1.0-rc12	20100921.100549	staircase	502	1	1	2v5	0.060000	1	0	0	present	1	918	80.035
ATM3	Crossover_4	1.0-rc12	20100921.100553	staircase	503	1	4	2v5	0.060000	1	0	0	present	1	1242	80.028
ATM3	Crossover_4	1.0-rc12	20100921.100557	staircase	504	1	1	orientation	0.700000	1	2	9	absent	0	1173	80.037
ATM3	Crossover_4	1.0-rc12	20100921.100601	staircase	505	0	4	2v5	0.060000	1	0	0	present	0	1119	80.032
ATM3	Crossover_4	1.0-rc12	20100921.100605	staircase	506	0	4	orientation	0.662500	1	1	0	absent	1	530	80.022
ATM3	Crossover_4	1.0-rc12	20100921.100609	staircase	507	0	2	orientation	0.650000	1	2	0	absent	1	1326	80.040
ATM3	Crossover_4	1.0-rc12	20100921.100613	staircase	508	0	4	orientation	0.662500	1	1	0	absent	1	648	80.024
ATM3	Crossover_4	1.0-rc12	20100921.100617	staircase	509	1	8	2v5	0.060000	1	0	0	present	1	738	80.027
ATM3	Crossover_4	1.0-rc12	20100921.100620	staircase	510	1	4	2v5	0.060000	1	0	0	present	1	579	80.023
ATM3	Crossover_4	1.0-rc12	20100921.100624	staircase	511	1	4	2v5	0.060000	1	0	0	present	1	661	80.029
ATM3	Crossover_4	1.0-rc12	20100921.100628	staircase	512	1	2	orientation	0.650000	1	2	10	present	1	530	80.026
ATM3	Crossover_4	1.0-rc12	20100921.100631	staircase	513	1	2	orientation	0.662500	1	1	0	absent	0	516	80.027
ATM3	Crossover_4	1.0-rc12	20100921.100635	staircase	514	0	4	orientation	0.662500	1	2	11	present	0	648	80.034
ATM3	Crossover_4	1.0-rc12	20100921.100638	staircase	515	0	8	2v5	0.060000	1	0	0	present	0	724	80.019
ATM3	Crossover_4	1.0-rc12	20100921.100642	staircase	516	1	1	orientation	0.612500	1	1	12	present	1	786	80.026
ATM3	Crossover_4	1.0-rc12	20100921.100646	staircase	517	1	1	2v5	0.060000	1	0	0	present	1	468	80.024
ATM3	Crossover_4	1.0-rc12	20100921.100650	staircase	518	1	8	orientation	0.600000	1	2	12	present	1	889	80.039
ATM3	Crossover_4	1.0-rc12	20100921.100653	staircase	519	0	2	orientation	0.625000	1	1	0	absent	1	676	80.028
ATM3	Crossover_4	1.0-rc12	20100921.100657	staircase	520	1	8	orientation	0.612500	1	2	0	present	1	612	80.032
ATM3	Crossover_4	1.0-rc12	20100921.100701	staircase	521	1	1	orientation	0.625000	1	1	0	present	1	558	80.035
ATM3	Crossover_4	1.0-rc12	20100921.100704	staircase	522	0	4	orientation	0.625000	1	2	0	absent	1	793	80.039
ATM3	Crossover_4	1.0-rc12	20100921.100708	staircase	523	0	8	2v5	0.060000	1	0	0	absent	1	904	80.030
ATM3	Crossover_4	1.0-rc12	20100921.100712	staircase	524	1	8	2v5	0.060000	1	0	0	absent	0	773	80.026
ATM3	Crossover_4	1.0-rc12	20100921.100716	staircase	525	1	4	orientation	0.637500	1	1	0	present	1	655	80.036
ATM3	Crossover_4	1.0-rc12	20100921.100720	staircase	526	1	1	orientation	0.625000	1	2	0	present	1	634	80.033
ATM3	Crossover_4	1.0-rc12	20100921.100723	staircase	527	1	2	orientation	0.650000	1	1	0	present	1	717	80.021
ATM3	Crossover_4	1.0-rc12	20100921.100727	staircase	528	1	2	2v5	0.060000	1	0	0	present	1	2438	80.033
ATM3	Crossover_4	1.0-rc12	20100921.100732	staircase	529	0	4	2v5	0.060000	1	0	0	absent	1	551	80.029
ATM3	Crossover_4	1.0-rc12	20100921.100736	staircase	530	0	8	2v5	0.060000	1	0	0	absent	1	682	80.023
ATM3	Crossover_4	1.0-rc12	20100921.100744	staircase	531	0	2	2v5	0.060000	1	0	0	absent	1	703	80.028
ATM3	Crossover_4	1.0-rc12	20100921.100748	staircase	532	1	4	orientation	0.637500	1	2	0	present	1	461	80.023
ATM3	Crossover_4	1.0-rc12	20100921.100751	staircase	533	0	2	orientation	0.662500	1	1	0	absent	1	481	80.039
ATM3	Crossover_4	1.0-rc12	20100921.100755	staircase	534	1	2	2v5	0.060000	1	0	0	present	1	987	80.031
ATM3	Crossover_4	1.0-rc12	20100921.100759	staircase	535	1	8	2v5	0.060000	1	0	0	present	1	675	80.030
ATM3	Crossover_4	1.0-rc12	20100921.100803	staircase	536	0	8	orientation	0.650000	1	2	13	present	0	1527	80.028
ATM3	Crossover_4	1.0-rc12	20100921.100807	staircase	537	0	8	2v5	0.060000	1	0	0	absent	1	1360	80.033
ATM3	Crossover_4	1.0-rc12	20100921.100812	staircase	538	1	1	2v5	0.060000	1	0	0	present	1	502	80.026
ATM3	Crossover_4	1.0-rc12	20100921.100815	staircase	539	0	1	orientation	0.662500	1	1	0	absent	1	433	80.033
ATM3	Crossover_4	1.0-rc12	20100921.100819	staircase	540	0	1	orientation	0.587500	1	2	0	absent	1	578	80.029
ATM3	Crossover_4	1.0-rc12	20100921.100822	staircase	541	1	8	2v5	0.060000	1	0	0	present	1	903	80.030
ATM3	Crossover_4	1.0-rc12	20100921.100826	staircase	542	1	1	2v5	0.060000	1	0	0	present	1	523	80.034
ATM3	Crossover_4	1.0-rc12	20100921.100830	staircase	543	0	2	2v5	0.060000	1	0	0	absent	1	537	80.031
ATM3	Crossover_4	1.0-rc12	20100921.100833	staircase	544	1	1	orientation	0.662500	1	1	0	present	1	634	80.020
ATM3	Crossover_4	1.0-rc12	20100921.100837	staircase	545	0	8	orientation	0.587500	1	2	0	absent	1	620	80.035
ATM3	Crossover_4	1.0-rc12	20100921.100841	staircase	546	0	8	orientation	0.675000	1	1	0	absent	1	994	80.025
ATM3	Crossover_4	1.0-rc12	20100921.100845	staircase	547	0	1	2v5	0.060000	1	0	0	absent	1	481	80.025
ATM3	Crossover_4	1.0-rc12	20100921.100848	staircase	548	0	8	orientation	0.587500	1	2	0	absent	1	502	80.033
ATM3	Crossover_4	1.0-rc12	20100921.100852	staircase	549	1	8	orientation	0.675000	1	1	0	present	1	544	80.032
ATM3	Crossover_4	1.0-rc12	20100921.100855	staircase	550	0	1	orientation	0.587500	1	2	0	absent	1	433	80.030
ATM3	Crossover_4	1.0-rc12	20100921.100859	staircase	551	0	2	2v5	0.060000	1	0	0	absent	1	440	80.033
ATM3	Crossover_4	1.0-rc12	20100921.100902	staircase	552	1	2	orientation	0.687500	1	1	13	absent	0	1138	80.028
ATM3	Crossover_4	1.0-rc12	20100921.100906	staircase	553	0	4	2v5	0.060000	1	0	0	present	0	661	80.027
ATM3	Crossover_4	1.0-rc12	20100921.100910	staircase	554	1	2	2v5	0.060000	1	0	0	present	1	599	80.018
ATM3	Crossover_4	1.0-rc12	20100921.100914	staircase	555	1	8	orientation	0.587500	1	2	14	present	1	1429	80.024
ATM3	Crossover_4	1.0-rc12	20100921.100918	staircase	556	0	8	2v5	0.060000	1	0	0	absent	1	1422	80.031
ATM3	Crossover_4	1.0-rc12	20100921.100922	staircase	557	0	4	2v5	0.060000	1	0	0	absent	1	578	80.031
ATM3	Crossover_4	1.0-rc12	20100921.100926	staircase	558	1	4	orientation	0.637500	1	1	0	absent	0	523	80.025
ATM3	Crossover_4	1.0-rc12	20100921.100930	staircase	559	0	2	2v5	0.060000	1	0	0	absent	1	571	80.028
ATM3	Crossover_4	1.0-rc12	20100921.100933	staircase	560	1	1	2v5	0.060000	1	0	0	present	1	523	80.025
ATM3	Crossover_4	1.0-rc12	20100921.100937	staircase	561	0	2	2v5	0.060000	1	0	0	absent	1	516	80.028
ATM3	Crossover_4	1.0-rc12	20100921.100940	staircase	562	0	2	orientation	0.600000	1	2	0	absent	1	516	80.030
ATM3	Crossover_4	1.0-rc12	20100921.100944	staircase	563	1	1	2v5	0.060000	1	0	0	present	1	522	80.026
ATM3	Crossover_4	1.0-rc12	20100921.100947	staircase	564	1	8	orientation	0.587500	1	1	14	present	1	495	80.030
ATM3	Crossover_4	1.0-rc12	20100921.100951	staircase	565	0	1	2v5	0.060000	1	0	0	absent	1	398	80.021
ATM3	Crossover_4	1.0-rc12	20100921.100954	staircase	566	0	4	2v5	0.060000	1	0	0	absent	1	599	80.033
ATM3	Crossover_4	1.0-rc12	20100921.100958	staircase	567	0	2	2v5	0.060000	1	0	0	absent	1	716	80.027
ATM3	Crossover_4	1.0-rc12	20100921.101002	staircase	568	1	1	2v5	0.060000	1	0	0	present	1	612	80.026
ATM3	Crossover_4	1.0-rc12	20100921.101005	staircase	569	1	1	orientation	0.600000	1	2	15	absent	0	440	80.032
ATM3	Crossover_4	1.0-rc12	20100921.101009	staircase	570	0	8	2v5	0.060000	1	0	0	absent	1	890	80.027
ATM3	Crossover_4	1.0-rc12	20100921.101012	staircase	571	1	1	2v5	0.060000	1	0	0	present	1	627	80.036
ATM3	Crossover_4	1.0-rc12	20100921.101016	staircase	572	1	2	orientation	0.600000	1	1	0	present	1	509	80.038
ATM3	Crossover_4	1.0-rc12	20100921.101020	staircase	573	1	4	orientation	0.550000	1	2	16	present	1	565	80.029
ATM3	Crossover_4	1.0-rc12	20100921.101023	staircase	574	1	2	2v5	0.060000	1	0	0	present	1	820	80.037
ATM3	Crossover_4	1.0-rc12	20100921.101027	staircase	575	0	2	2v5	0.060000	1	0	0	absent	1	557	80.031
ATM3	Crossover_4	1.0-rc12	20100921.101031	staircase	576	1	4	2v5	0.060000	1	0	0	present	1	495	80.032
ATM3	Crossover_4	1.0-rc12	20100921.101034	staircase	577	1	2	orientation	0.612500	1	1	0	present	1	523	80.033
ATM3	Crossover_4	1.0-rc12	20100921.101038	staircase	578	0	2	2v5	0.060000	1	0	0	absent	1	737	80.037
ATM3	Crossover_4	1.0-rc12	20100921.101041	staircase	579	0	1	orientation	0.562500	1	2	0	absent	1	703	80.026
ATM3	Crossover_4	1.0-rc12	20100921.101045	staircase	580	0	1	2v5	0.060000	1	0	0	absent	1	536	80.033
ATM3	Crossover_4	1.0-rc12	20100921.101056	staircase	581	1	1	2v5	0.060000	1	0	0	present	1	613	80.027
ATM3	Crossover_4	1.0-rc12	20100921.101100	staircase	582	0	4	2v5	0.060000	1	0	0	absent	1	530	80.025
ATM3	Crossover_4	1.0-rc12	20100921.101103	staircase	583	1	2	2v5	0.060000	1	0	0	present	1	668	80.027
ATM3	Crossover_4	1.0-rc12	20100921.101107	staircase	584	1	8	orientation	0.625000	1	1	15	absent	0	572	80.028
ATM3	Crossover_4	1.0-rc12	20100921.101111	staircase	585	1	4	orientation	0.562500	1	2	0	present	1	737	80.030
ATM3	Crossover_4	1.0-rc12	20100921.101114	staircase	586	1	4	2v5	0.060000	1	0	0	present	1	516	80.020
ATM3	Crossover_4	1.0-rc12	20100921.101118	staircase	587	0	2	orientation	0.575000	1	1	0	absent	1	537	80.029
ATM3	Crossover_4	1.0-rc12	20100921.101121	staircase	588	1	1	orientation	0.575000	1	2	0	present	1	557	80.033
ATM3	Crossover_4	1.0-rc12	20100921.101125	staircase	589	0	2	2v5	0.060000	1	0	0	absent	1	564	80.023
ATM3	Crossover_4	1.0-rc12	20100921.101128	staircase	590	1	8	2v5	0.060000	1	0	0	present	1	586	80.039
ATM3	Crossover_4	1.0-rc12	20100921.101132	staircase	591	0	1	2v5	0.060000	1	0	0	absent	1	481	80.031
ATM3	Crossover_4	1.0-rc12	20100921.101135	staircase	592	0	8	orientation	0.575000	1	1	0	absent	1	647	80.022
ATM3	Crossover_4	1.0-rc12	20100921.101139	staircase	593	0	1	orientation	0.587500	1	2	0	absent	1	495	80.021
ATM3	Crossover_4	1.0-rc12	20100921.101143	staircase	594	0	1	2v5	0.060000	1	0	0	absent	1	572	80.036
ATM3	Crossover_4	1.0-rc12	20100921.101146	staircase	595	1	8	2v5	0.060000	1	0	0	absent	0	771	80.028
ATM3	Crossover_4	1.0-rc12	20100921.101150	staircase	596	0	4	orientation	0.575000	1	1	0	absent	1	703	80.030
ATM3	Crossover_4	1.0-rc12	20100921.101154	staircase	597	1	4	orientation	0.587500	1	2	0	present	1	730	80.025
ATM3	Crossover_4	1.0-rc12	20100921.101158	staircase	598	0	4	orientation	0.575000	1	1	0	absent	1	461	80.029
ATM3	Crossover_4	1.0-rc12	20100921.101201	staircase	599	0	4	orientation	0.600000	1	2	0	absent	1	592	80.028
ATM3	Crossover_4	1.0-rc12	20100921.101205	staircase	600	0	4	2v5	0.060000	1	0	0	absent	1	779	80.026
ATM3	Crossover_4	1.0-rc12	20100921.101208	staircase	601	1	8	orientation	0.575000	1	1	16	present	1	571	80.023
ATM3	Crossover_4	1.0-rc12	20100921.101212	staircase	602	0	1	2v5	0.060000	1	0	0	absent	1	979	80.026
ATM3	Crossover_4	1.0-rc12	20100921.101216	staircase	603	0	1	orientation	0.600000	1	2	0	absent	1	648	80.034
ATM3	Crossover_4	1.0-rc12	20100921.101220	staircase	604	1	8	orientation	0.587500	1	1	0	present	1	495	80.034
ATM3	Crossover_4	1.0-rc12	20100921.101223	staircase	605	1	4	2v5	0.060000	1	0	0	present	1	703	80.032
ATM3	Crossover_4	1.0-rc12	20100921.101227	staircase	606	1	4	orientation	0.600000	1	2	0	present	1	516	80.021
ATM3	Crossover_4	1.0-rc12	20100921.101230	staircase	607	0	8	2v5	0.060000	1	0	0	absent	1	793	80.032
ATM3	Crossover_4	1.0-rc12	20100921.101234	staircase	608	0	2	orientation	0.600000	1	1	0	absent	1	578	80.023
ATM3	Crossover_4	1.0-rc12	20100921.101238	staircase	609	0	1	2v5	0.060000	1	0	0	absent	1	537	80.029
ATM3	Crossover_4	1.0-rc12	20100921.101241	staircase	610	1	4	2v5	0.060000	1	0	0	present	1	599	80.022
ATM3	Crossover_4	1.0-rc12	20100921.101245	staircase	611	1	8	2v5	0.060000	1	0	0	present	1	572	80.026
ATM3	Crossover_4	1.0-rc12	20100921.101249	staircase	612	1	4	orientation	0.612500	1	2	0	present	1	675	80.034
ATM3	Crossover_4	1.0-rc12	20100921.101252	staircase	613	1	8	orientation	0.600000	1	1	17	absent	0	606	80.020
ATM3	Crossover_4	1.0-rc12	20100921.101256	staircase	614	0	8	2v5	0.060000	1	0	0	absent	1	861	80.032
ATM3	Crossover_4	1.0-rc12	20100921.101300	staircase	615	0	8	2v5	0.060000	1	0	0	absent	1	613	80.025
ATM3	Crossover_4	1.0-rc12	20100921.101303	staircase	616	1	1	orientation	0.625000	1	2	0	present	1	598	80.036
ATM3	Crossover_4	1.0-rc12	20100921.101307	staircase	617	0	2	orientation	0.550000	1	1	0	absent	1	647	80.030
ATM3	Crossover_4	1.0-rc12	20100921.101311	staircase	618	0	4	2v5	0.060000	1	0	0	absent	1	863	80.028
ATM3	Crossover_4	1.0-rc12	20100921.101314	staircase	619	0	1	2v5	0.060000	1	0	0	absent	1	579	80.031
ATM3	Crossover_4	1.0-rc12	20100921.101318	staircase	620	0	2	orientation	0.637500	1	2	0	absent	1	537	80.024
ATM3	Crossover_4	1.0-rc12	20100921.101322	staircase	621	1	2	2v5	0.060000	1	0	0	present	1	758	80.034
ATM3	Crossover_4	1.0-rc12	20100921.101325	staircase	622	1	1	2v5	0.060000	1	0	0	present	1	551	80.035
ATM3	Crossover_4	1.0-rc12	20100921.101329	staircase	623	1	4	2v5	0.060000	1	0	0	absent	0	641	80.027
ATM3	Crossover_4	1.0-rc12	20100921.101333	staircase	624	1	2	orientation	0.550000	1	1	18	present	1	488	80.035
ATM3	Crossover_4	1.0-rc12	20100921.101336	staircase	625	0	1	orientation	0.637500	1	2	0	absent	1	502	80.033
ATM3	Crossover_4	1.0-rc12	20100921.101340	staircase	626	0	1	2v5	0.060000	1	0	0	absent	1	572	80.035
ATM3	Crossover_4	1.0-rc12	20100921.101343	staircase	627	0	8	orientation	0.562500	1	1	0	absent	1	627	80.029
ATM3	Crossover_4	1.0-rc12	20100921.101347	staircase	628	0	2	orientation	0.637500	1	2	0	absent	1	537	80.030
ATM3	Crossover_4	1.0-rc12	20100921.101350	staircase	629	1	2	2v5	0.060000	1	0	0	present	1	488	80.031
ATM3	Crossover_4	1.0-rc12	20100921.101354	staircase	630	0	4	2v5	0.060000	1	0	0	present	0	959	80.032
ATM3	Crossover_4	1.0-rc12	20100921.101402	staircase	631	0	1	orientation	0.562500	1	1	0	absent	1	530	80.033
ATM3	Crossover_4	1.0-rc12	20100921.101406	staircase	632	1	2	2v5	0.060000	1	0	0	present	1	599	80.030
ATM3	Crossover_4	1.0-rc12	20100921.101409	staircase	633	1	4	orientation	0.637500	1	2	17	absent	0	488	80.031
ATM3	Crossover_4	1.0-rc12	20100921.101413	staircase	634	0	2	2v5	0.060000	1	0	0	absent	1	800	80.035
ATM3	Crossover_4	1.0-rc12	20100921.101417	staircase	635	0	4	orientation	0.562500	1	1	0	absent	1	634	80.020
ATM3	Crossover_4	1.0-rc12	20100921.101420	staircase	636	1	2	orientation	0.587500	1	2	18	present	1	495	80.030
ATM3	Crossover_4	1.0-rc12	20100921.101424	staircase	637	1	4	orientation	0.562500	1	1	0	present	1	495	80.029
ATM3	Crossover_4	1.0-rc12	20100921.101427	staircase	638	1	1	orientation	0.600000	1	2	0	present	1	447	80.034
ATM3	Crossover_4	1.0-rc12	20100921.101431	staircase	639	0	1	orientation	0.575000	1	1	0	absent	1	454	80.027
ATM3	Crossover_4	1.0-rc12	20100921.101434	staircase	640	0	4	orientation	0.612500	1	2	0	absent	1	544	80.026
ATM3	Crossover_4	1.0-rc12	20100921.101438	staircase	641	1	2	orientation	0.575000	1	1	0	present	1	440	80.023
ATM3	Crossover_4	1.0-rc12	20100921.101441	staircase	642	1	1	orientation	0.612500	1	2	0	present	1	419	80.029
ATM3	Crossover_4	1.0-rc12	20100921.101445	staircase	643	1	8	2v5	0.060000	1	0	0	present	1	578	80.018
ATM3	Crossover_4	1.0-rc12	20100921.101448	staircase	644	0	8	orientation	0.587500	1	1	0	absent	1	648	80.033
ATM3	Crossover_4	1.0-rc12	20100921.101452	staircase	645	0	1	2v5	0.060000	1	0	0	absent	1	502	80.020
ATM3	Crossover_4	1.0-rc12	20100921.101455	staircase	646	0	8	2v5	0.060000	1	0	0	absent	1	557	80.027
ATM3	Crossover_4	1.0-rc12	20100921.101459	staircase	647	1	1	2v5	0.060000	1	0	0	present	1	502	80.024
ATM3	Crossover_4	1.0-rc12	20100921.101502	staircase	648	0	2	2v5	0.060000	1	0	0	absent	1	992	80.026
ATM3	Crossover_4	1.0-rc12	20100921.101506	staircase	649	1	1	orientation	0.625000	1	2	0	present	1	558	80.019
ATM3	Crossover_4	1.0-rc12	20100921.101510	staircase	650	0	1	2v5	0.060000	1	0	0	absent	1	488	80.037
ATM3	Crossover_4	1.0-rc12	20100921.101514	staircase	651	1	2	orientation	0.587500	1	1	0	present	1	564	80.030
ATM3	Crossover_4	1.0-rc12	20100921.101517	staircase	652	0	2	orientation	0.637500	1	2	0	absent	1	571	80.034
ATM3	Crossover_4	1.0-rc12	20100921.101521	staircase	653	1	8	2v5	0.060000	1	0	0	present	1	1180	80.021
ATM3	Crossover_4	1.0-rc12	20100921.101525	staircase	654	1	2	orientation	0.600000	1	1	0	present	1	523	80.022
ATM3	Crossover_4	1.0-rc12	20100921.101528	staircase	655	0	4	2v5	0.060000	1	0	0	absent	1	572	80.036
ATM3	Crossover_4	1.0-rc12	20100921.101532	staircase	656	1	1	orientation	0.637500	1	2	19	absent	0	1096	80.033
ATM3	Crossover_4	1.0-rc12	20100921.101536	staircase	657	0	1	2v5	0.060000	1	0	0	absent	1	737	80.027
ATM3	Crossover_4	1.0-rc12	20100921.101540	staircase	658	0	4	2v5	0.060000	1	0	0	absent	1	613	80.027
ATM3	Crossover_4	1.0-rc12	20100921.101543	staircase	659	0	4	orientation	0.612500	1	1	0	absent	1	537	80.026
ATM3	Crossover_4	1.0-rc12	20100921.101547	staircase	660	0	8	2v5	0.060000	1	0	0	present	0	619	80.032
ATM3	Crossover_4	1.0-rc12	20100921.101551	staircase	661	0	1	orientation	0.587500	1	2	0	absent	1	398	80.036
ATM3	Crossover_4	1.0-rc12	20100921.101554	staircase	662	1	1	2v5	0.060000	1	0	0	present	1	433	80.030
ATM3	Crossover_4	1.0-rc12	20100921.101558	staircase	663	1	1	2v5	0.060000	1	0	0	present	1	481	80.022
ATM3	Crossover_4	1.0-rc12	20100921.101601	staircase	664	0	4	2v5	0.060000	1	0	0	absent	1	426	80.039
ATM3	Crossover_4	1.0-rc12	20100921.101605	staircase	665	1	8	orientation	0.612500	1	1	0	present	1	523	80.039
ATM3	Crossover_4	1.0-rc12	20100921.101608	staircase	666	0	2	2v5	0.060000	1	0	0	absent	1	571	80.034
ATM3	Crossover_4	1.0-rc12	20100921.101612	staircase	667	1	8	orientation	0.587500	1	2	20	present	1	530	80.024
ATM3	Crossover_4	1.0-rc12	20100921.101615	staircase	668	0	4	2v5	0.060000	1	0	0	absent	1	460	80.032
ATM3	Crossover_4	1.0-rc12	20100921.101619	staircase	669	0	4	orientation	0.625000	1	1	0	absent	1	537	80.025
ATM3	Crossover_4	1.0-rc12	20100921.101622	staircase	670	0	1	orientation	0.625000	1	1	0	absent	1	502	80.027
ATM3	Crossover_4	1.0-rc12	20100921.101626	staircase	671	1	1	2v5	0.060000	1	0	0	present	1	537	80.034
ATM3	Crossover_4	1.0-rc12	20100921.101629	staircase	672	1	4	2v5	0.060000	1	0	0	absent	0	571	80.018
ATM3	Crossover_4	1.0-rc12	20100921.101633	staircase	673	0	8	orientation	0.625000	1	1	0	absent	1	433	80.036
ATM3	Crossover_4	1.0-rc12	20100921.101636	staircase	674	0	1	orientation	0.625000	1	1	0	absent	1	523	80.027
ATM3	Crossover_4	1.0-rc12	20100921.101640	staircase	675	0	2	2v5	0.060000	1	0	0	absent	1	1512	80.032
ATM3	Crossover_4	1.0-rc12	20100921.101644	staircase	676	1	8	2v5	0.060000	1	0	0	present	1	654	80.034
ATM3	Crossover_4	1.0-rc12	20100921.101648	staircase	677	1	4	orientation	0.625000	1	1	0	present	1	1166	80.027
ATM3	Crossover_4	1.0-rc12	20100921.101652	staircase	678	0	4	orientation	0.637500	1	1	0	absent	1	398	80.033
ATM3	Crossover_4	1.0-rc12	20100921.101656	staircase	679	1	8	2v5	0.060000	1	0	0	present	1	550	80.026
ATM3	Crossover_4	1.0-rc12	20100921.101659	staircase	680	1	2	orientation	0.637500	1	1	0	present	1	488	80.026
ATM3	Crossover_4	1.0-rc12	20100921.101707	staircase	681	0	1	orientation	0.650000	1	1	0	absent	1	454	80.020
ATM3	Crossover_4	1.0-rc12	20100921.101711	staircase	682	1	8	orientation	0.650000	1	1	19	absent	0	613	80.030
ATM3	Crossover_4	1.0-rc12	20100921.101714	staircase	683	1	2	2v5	0.060000	1	0	0	present	1	827	80.031
ATM3	Crossover_4	1.0-rc12	20100921.101718	staircase	684	1	8	orientation	0.600000	1	1	20	present	1	903	80.033
ATM3	Crossover_4	1.0-rc12	20100921.131427	practice	1	1	4	orientation	0.625000	1	0	0	present	1	642	80.029
ATM3	Crossover_4	1.0-rc12	20100921.131431	practice	2	0	8	orientation	0.625000	1	0	0	absent	1	586	80.032
ATM3	Crossover_4	1.0-rc12	20100921.131435	practice	3	1	1	2v5	0.100000	1	0	0	present	1	717	80.031
ATM3	Crossover_4	1.0-rc12	20100921.131438	practice	4	0	2	2v5	0.100000	1	0	0	absent	1	552	80.026
ATM3	Crossover_4	1.0-rc12	20100921.131442	practice	5	0	4	2v5	0.100000	1	0	0	absent	1	558	80.027
ATM3	Crossover_4	1.0-rc12	20100921.131445	practice	6	1	1	2v5	0.100000	1	0	0	present	1	766	80.021
ATM3	Crossover_4	1.0-rc12	20100921.131449	practice	7	1	8	2v5	0.100000	1	0	0	present	1	1459	80.036
ATM3	Crossover_4	1.0-rc12	20100921.131454	practice	8	0	8	orientation	0.625000	1	0	0	absent	1	586	80.036
ATM3	Crossover_4	1.0-rc12	20100921.131457	practice	9	1	2	2v5	0.100000	1	0	0	present	1	572	80.030
ATM3	Crossover_4	1.0-rc12	20100921.131501	practice	10	0	1	orientation	0.625000	1	0	0	absent	1	579	80.029
ATM3	Crossover_4	1.0-rc12	20100921.131504	practice	11	1	8	2v5	0.100000	1	0	0	absent	0	787	80.028
ATM3	Crossover_4	1.0-rc12	20100921.131508	practice	12	1	2	orientation	0.625000	1	0	0	present	1	607	80.029
ATM3	Crossover_4	1.0-rc12	20100921.131512	practice	13	0	2	2v5	0.100000	1	0	0	absent	1	586	80.034
ATM3	Crossover_4	1.0-rc12	20100921.131515	practice	14	0	4	orientation	0.625000	1	0	0	absent	1	600	80.031
ATM3	Crossover_4	1.0-rc12	20100921.131519	practice	15	1	4	2v5	0.100000	1	0	0	present	1	801	80.031
ATM3	Crossover_4	1.0-rc12	20100921.131523	practice	16	0	1	2v5	0.100000	1	0	0	absent	1	558	80.030
ATM3	Crossover_4	1.0-rc12	20100921.131526	practice	17	1	2	2v5	0.100000	1	0	0	present	1	773	80.024
ATM3	Crossover_4	1.0-rc12	20100921.131530	practice	18	0	2	2v5	0.100000	1	0	0	absent	1	606	80.032
ATM3	Crossover_4	1.0-rc12	20100921.131534	practice	19	1	2	orientation	0.625000	1	0	0	present	1	752	80.031
ATM3	Crossover_4	1.0-rc12	20100921.131538	practice	20	0	1	2v5	0.100000	1	0	0	absent	1	537	80.031
ATM3	Crossover_4	1.0-rc12	20100921.131541	practice	21	0	4	2v5	0.100000	1	0	0	absent	1	692	80.035
ATM3	Crossover_4	1.0-rc12	20100921.131545	practice	22	1	8	orientation	0.625000	1	0	0	present	1	711	80.034
ATM3	Crossover_4	1.0-rc12	20100921.131549	practice	23	0	1	2v5	0.100000	1	0	0	absent	1	524	80.031
ATM3	Crossover_4	1.0-rc12	20100921.131552	practice	24	0	4	orientation	0.625000	1	0	0	absent	1	898	80.031
ATM3	Crossover_4	1.0-rc12	20100921.131556	practice	25	1	8	2v5	0.100000	1	0	0	present	1	648	80.026
ATM3	Crossover_4	1.0-rc12	20100921.131600	practice	26	1	1	orientation	0.625000	1	0	0	present	1	690	80.021
ATM3	Crossover_4	1.0-rc12	20100921.131603	practice	27	0	1	orientation	0.625000	1	0	0	absent	1	440	80.027
ATM3	Crossover_4	1.0-rc12	20100921.131607	practice	28	1	4	2v5	0.100000	1	0	0	present	1	717	80.029
ATM3	Crossover_4	1.0-rc12	20100921.131610	practice	29	1	1	orientation	0.625000	1	0	0	present	1	524	80.024
ATM3	Crossover_4	1.0-rc12	20100921.131614	practice	30	0	4	2v5	0.100000	1	0	0	absent	1	787	80.022
ATM3	Crossover_4	1.0-rc12	20100921.131618	practice	31	1	4	orientation	0.625000	1	0	0	present	1	18040	80.036
ATM3	Crossover_4	1.0-rc12	20100921.131639	practice	32	1	2	orientation	0.625000	1	0	0	present	1	3337	80.027
ATM3	Crossover_4	1.0-rc12	20100921.131645	practice	33	1	4	orientation	0.625000	1	0	0	present	1	6965	80.029
ATM3	Crossover_4	1.0-rc12	20100921.131655	practice	34	1	8	orientation	0.625000	1	0	0	present	1	662	80.030
ATM3	Crossover_4	1.0-rc12	20100921.131659	practice	35	0	8	orientation	0.625000	1	0	0	absent	1	690	80.033
ATM3	Crossover_4	1.0-rc12	20100921.131702	practice	36	1	2	2v5	0.100000	1	0	0	absent	0	919	80.028
ATM3	Crossover_4	1.0-rc12	20100921.131706	practice	37	0	2	orientation	0.625000	1	0	0	absent	1	745	80.019
ATM3	Crossover_4	1.0-rc12	20100921.131710	practice	38	0	2	2v5	0.100000	1	0	0	present	0	5579	80.029
